trial_num,selection_num,timestamp,shape,position,fixation_duration_ms,rt_from_trial_start_ms,rt_from_previous_selection_ms,queued_selection,was_executed
13,1,1497.246823399997,circle,"(-480.0, -270.0)",268.76659999834374,268.7871000089217,268.7871000089217,False,True
13,2,1497.5092868999927,circle,"(-480.0, -270.0)",257.3005000012927,531.2506000045687,262.463499995647,True,False
13,2,1497.527357999992,circle,"(-480.0, -270.0)",0,549.3217000039294,280.53459999500774,True,False
13,2,1497.5424167999881,circle,"(-480.0, -270.0)",0,564.3804999999702,295.5933999910485,True,False
13,2,1497.5644286999886,circle,"(-480.0, -270.0)",0,586.3924000004772,317.6052999915555,True,False
13,2,1497.592279799981,circle,"(-480.0, -270.0)",0,614.243499992881,345.4563999839593,True,False
13,2,1497.6094602999801,circle,"(-480.0, -270.0)",0,631.4239999919664,362.6368999830447,True,False
13,2,1497.6247771999915,circle,"(-480.0, -270.0)",0,646.7409000033513,377.9537999944296,True,False
13,2,1497.642680399993,circle,"(-480.0, -270.0)",0,664.6441000048071,395.8569999958854,True,False
13,2,1497.6589717000024,circle,"(-480.0, -270.0)",0,680.9354000142775,412.14830000535585,True,False
13,2,1497.6758109999937,circle,"(-480.0, -270.0)",0,697.7747000055388,428.98759999661706,True,False
13,2,1497.6917504000012,circle,"(-480.0, -270.0)",0,713.7141000130214,444.9270000040997,True,False
13,2,1497.7097421000071,circle,"(-480.0, -270.0)",0,731.7058000189718,462.9187000100501,True,False
13,2,1497.7251675000007,circle,"(-480.0, -270.0)",0,747.1312000125181,478.3441000035964,True,False
13,2,1497.7423274999892,circle,"(-480.0, -270.0)",0,764.2912000010256,495.5040999921039,True,False
13,2,1497.7585782999813,circle,"(-480.0, -270.0)",0,780.5419999931473,511.75489998422563,True,False
13,2,1497.7756236999994,circle,"(-480.0, -270.0)",0,797.5874000112526,528.8003000023309,True,False
13,2,1497.7914559000055,circle,"(-480.0, -270.0)",0,813.4196000173688,544.6325000084471,True,False
13,2,1497.8094219999912,circle,"(-480.0, -270.0)",0,831.3857000030112,562.5985999940895,True,False
13,2,1497.8120052999875,star,"(-480.0, 270.0)",253.1382000015583,833.9689999993425,565.1818999904208,True,False
13,2,1497.829673500004,star,"(-480.0, 270.0)",0,851.6372000158299,582.8501000069082,True,False
13,2,1497.8429008999956,star,"(-480.0, 270.0)",0,864.8646000074223,596.0774999985006,True,False
13,2,1497.8587811999896,star,"(-480.0, 270.0)",0,880.7449000014458,611.9577999925241,True,False
13,2,1497.8740460999834,star,"(-480.0, 270.0)",0,896.0097999952268,627.2226999863051,True,False
13,2,1497.8920299999882,star,"(-480.0, 270.0)",0,913.9936999999918,645.2065999910701,True,False
13,2,1497.907805099996,star,"(-480.0, 270.0)",0,929.7688000078779,660.9816999989562,True,False
13,2,1497.9256635000056,star,"(-480.0, 270.0)",0,947.6272000174504,678.8401000085287,True,False
13,2,1497.9414302000077,star,"(-480.0, 270.0)",0,963.3939000195824,694.6068000106607,True,False
13,2,1497.9593413999828,star,"(-480.0, 270.0)",0,981.3050999946427,712.517999985721,True,False
13,2,1497.9749122000067,star,"(-480.0, 270.0)",0,996.8759000184946,728.0888000095729,True,False
13,2,1497.9920392000058,star,"(-480.0, 270.0)",0,1014.0029000176582,745.2158000087366,True,False
13,2,1498.0084335999854,star,"(-480.0, 270.0)",0,1030.3972999972757,761.610199988354,True,False
13,2,1498.026334299997,star,"(-480.0, 270.0)",0,1048.2980000087991,779.5108999998774,True,False
13,2,1498.0420202999958,star,"(-480.0, 270.0)",0,1063.984000007622,795.1968999987002,True,False
13,2,1498.0594563999912,star,"(-480.0, 270.0)",0,1081.4201000030152,812.6329999940936,True,False
13,2,1498.075548199995,star,"(-480.0, 270.0)",0,1097.5119000067934,828.7247999978717,True,False
13,2,1498.0924688999949,star,"(-480.0, 270.0)",0,1114.432600006694,845.6454999977723,True,False
13,2,1498.1118023000017,star,"(-480.0, 270.0)",0,1133.7660000135656,864.978900004644,True,False
13,2,1498.1268803999992,star,"(-480.0, 270.0)",0,1148.844100011047,880.0570000021253,True,False
13,2,1498.141143099987,star,"(-480.0, 270.0)",0,1163.1067999987863,894.3196999898646,True,False
13,2,1498.144634700002,circle,"(-480.0, -270.0)",250.0673000176903,1166.5984000137541,897.8113000048324,True,False
13,2,1498.1641849000007,circle,"(-480.0, -270.0)",0,1186.1486000125296,917.361500003608,True,False
13,2,1498.1757646999904,circle,"(-480.0, -270.0)",0,1197.7284000022337,928.941299993312,True,False
13,2,1498.192061299982,circle,"(-480.0, -270.0)",0,1214.0249999938533,945.2378999849316,True,False
13,2,1498.2085174999957,circle,"(-480.0, -270.0)",0,1230.481200007489,961.6940999985673,True,False
13,2,1498.225819299987,circle,"(-480.0, -270.0)",0,1247.7829999988899,978.9958999899682,True,False
13,2,1498.2413502999989,circle,"(-480.0, -270.0)",0,1263.3140000107232,994.5269000018016,True,False
13,2,1498.2590778000013,circle,"(-480.0, -270.0)",0,1281.0415000130888,1012.2544000041671,True,False
13,2,1498.2745484999905,circle,"(-480.0, -270.0)",0,1296.5122000023257,1027.725099993404,True,False
13,2,1498.2919070000062,circle,"(-480.0, -270.0)",0,1313.8707000180148,1045.083600009093,True,False
13,2,1498.3085552999983,circle,"(-480.0, -270.0)",0,1330.5190000100993,1061.7319000011776,True,False
13,2,1498.3257423999894,circle,"(-480.0, -270.0)",0,1347.7061000012327,1078.918999992311,True,False
13,2,1498.3419148999965,circle,"(-480.0, -270.0)",0,1363.87860000832,1095.0914999993984,True,False
13,2,1498.359602099983,circle,"(-480.0, -270.0)",0,1381.5657999948598,1112.7786999859381,True,False
13,2,1498.3774520999868,circle,"(-480.0, -270.0)",0,1399.4157999986783,1130.6286999897566,True,False
13,2,1498.3922130999854,circle,"(-480.0, -270.0)",0,1414.1767999972217,1145.3896999883,True,False
13,2,1498.4080402999825,circle,"(-480.0, -270.0)",0,1430.0039999943692,1161.2168999854475,True,False
13,2,1498.4257836999896,circle,"(-480.0, -270.0)",0,1447.74740000139,1178.9602999924682,True,False
13,2,1498.4412385000032,circle,"(-480.0, -270.0)",0,1463.2022000150755,1194.4151000061538,True,False
13,2,1498.4595531999948,circle,"(-480.0, -270.0)",0,1481.5169000066817,1212.72979999776,True,False
13,2,1498.4751271999849,circle,"(-480.0, -270.0)",0,1497.0908999966923,1228.3037999877706,True,False
13,2,1498.4925178999838,circle,"(-480.0, -270.0)",0,1514.4815999956336,1245.694499986712,True,False
13,2,1498.5084143999848,circle,"(-480.0, -270.0)",0,1530.3780999965966,1261.5909999876749,True,False
13,2,1498.52557659999,circle,"(-480.0, -270.0)",0,1547.540300001856,1278.7531999929342,True,False
13,2,1498.5416149999946,circle,"(-480.0, -270.0)",0,1563.5787000064738,1294.791599997552,True,False
13,2,1498.5590652999817,circle,"(-480.0, -270.0)",0,1581.0289999935776,1312.241899984656,True,False
13,2,1498.5754172999877,circle,"(-480.0, -270.0)",0,1597.3809999995865,1328.5938999906648,True,False
13,2,1498.5923454999865,circle,"(-480.0, -270.0)",0,1614.309199998388,1345.5220999894664,True,False
13,2,1498.6147646000027,circle,"(-480.0, -270.0)",0,1636.7283000145108,1367.941200005589,True,False
13,2,1498.6416506999813,circle,"(-480.0, -270.0)",0,1663.6143999930937,1394.827299984172,True,False
13,2,1498.6593869999924,circle,"(-480.0, -270.0)",0,1681.3507000042591,1412.5635999953374,True,False
13,2,1498.6745691999968,circle,"(-480.0, -270.0)",0,1696.5329000086058,1427.745799999684,True,False
13,2,1498.6917112999945,circle,"(-480.0, -270.0)",0,1713.675000006333,1444.8878999974113,True,False
13,2,1498.7077371999912,circle,"(-480.0, -270.0)",0,1729.7009000030812,1460.9137999941595,True,False
13,2,1498.7252691999893,circle,"(-480.0, -270.0)",0,1747.2329000011086,1478.445799992187,True,False
13,2,1498.741295899992,circle,"(-480.0, -270.0)",0,1763.2596000039484,1494.4724999950267,True,False
13,2,1498.7577736999956,circle,"(-480.0, -270.0)",0,1779.7374000074342,1510.9502999985125,True,False
13,2,1498.775456400006,circle,"(-480.0, -270.0)",0,1797.4201000179164,1528.6330000089947,True,False
13,2,1498.7915402000071,circle,"(-480.0, -270.0)",0,1813.5039000189863,1544.7168000100646,True,False
13,2,1498.8094053999812,circle,"(-480.0, -270.0)",0,1831.3690999930259,1562.5819999841042,True,False
13,2,1498.8253852000053,circle,"(-480.0, -270.0)",0,1847.3489000170957,1578.561800008174,True,False
13,2,1498.8421316999884,circle,"(-480.0, -270.0)",0,1864.095400000224,1595.3082999913022,True,False
13,2,1498.859076599998,circle,"(-480.0, -270.0)",0,1881.0403000097722,1612.2532000008505,True,False
13,2,1498.8756389000046,circle,"(-480.0, -270.0)",0,1897.6026000163984,1628.8155000074767,True,False
13,2,1498.8910195000062,circle,"(-480.0, -270.0)",0,1912.9832000180613,1644.1961000091396,True,False
13,2,1498.909312600008,circle,"(-480.0, -270.0)",0,1931.2763000198174,1662.4892000108957,True,False
13,2,1498.9245981999848,circle,"(-480.0, -270.0)",0,1946.5618999965955,1677.7747999876738,True,False
13,2,1498.9419495000038,circle,"(-480.0, -270.0)",0,1963.9132000156678,1695.1261000067461,True,False
13,2,1498.9587877999875,circle,"(-480.0, -270.0)",0,1980.7514999993145,1711.9643999903928,True,False
13,2,1498.9756538000074,circle,"(-480.0, -270.0)",0,1997.6175000192598,1728.830400010338,True,False
13,2,1498.9912318999995,circle,"(-480.0, -270.0)",0,2013.195600011386,1744.4085000024643,True,False
13,2,1499.0091295999882,circle,"(-480.0, -270.0)",0,2031.093300000066,1762.3061999911442,True,False
13,2,1499.0250354000018,circle,"(-480.0, -270.0)",0,2046.999100013636,1778.2120000047144,True,False
13,2,1499.0423378999985,circle,"(-480.0, -270.0)",0,2064.301600010367,1795.5145000014454,True,False
13,2,1500.2094128000026,cross,"(480.0, -270.0)",251.76040001679212,3231.3765000144485,2962.589400005527,False,True
13,3,1500.6763766999939,star,"(-480.0, 270.0)",252.33039999147877,3698.3404000056908,466.9638999912422,True,False
13,3,1500.6944555999944,star,"(-480.0, 270.0)",0,3716.419300006237,485.04279999178834,True,False
13,3,1500.7089046000037,star,"(-480.0, 270.0)",0,3730.8683000155725,499.4918000011239,True,False
13,3,1500.7244886999833,star,"(-480.0, 270.0)",0,3746.452399995178,515.0758999807294,True,False
13,3,1500.74141029999,star,"(-480.0, 270.0)",0,3763.3740000019316,531.997499987483,True,False
13,3,1500.7585090000066,star,"(-480.0, 270.0)",0,3780.4727000184357,549.0962000039872,True,False
13,3,1500.7751392000064,star,"(-480.0, 270.0)",0,3797.102900018217,565.7264000037685,True,False
13,3,1500.7913657999889,star,"(-480.0, 270.0)",0,3813.329500000691,581.9529999862425,True,False
13,3,1500.8085863000015,star,"(-480.0, 270.0)",0,3830.550000013318,599.1734999988694,True,False
13,3,1500.824582900008,star,"(-480.0, 270.0)",0,3846.546600019792,615.1701000053436,True,False
13,3,1500.8419508999796,star,"(-480.0, 270.0)",0,3863.9145999914035,632.538099976955,True,False
13,3,1500.8579903999926,star,"(-480.0, 270.0)",0,3879.9541000043973,648.5775999899488,True,False
13,3,1500.8748669000051,star,"(-480.0, 270.0)",0,3896.830600016983,665.4541000025347,True,False
13,3,1500.8909207999823,star,"(-480.0, 270.0)",0,3912.8844999941066,681.507999979658,True,False
13,3,1500.9094325999904,star,"(-480.0, 270.0)",0,3931.396300002234,700.0197999877855,True,False
13,3,1500.9243770999892,star,"(-480.0, 270.0)",0,3946.340800001053,714.9642999866046,True,False
13,3,1500.9465842999925,star,"(-480.0, 270.0)",0,3968.5480000043754,737.1714999899268,True,False
13,3,1500.9606728999934,star,"(-480.0, 270.0)",0,3982.6366000052076,751.260099990759,True,False
13,3,1500.975917600008,star,"(-480.0, 270.0)",0,3997.881300019799,766.5048000053503,True,False
13,3,1500.9909349999798,star,"(-480.0, 270.0)",0,4012.898699991638,781.5221999771893,True,False
13,3,1501.008923299989,star,"(-480.0, 270.0)",0,4030.887000000803,799.5104999863543,True,False
13,3,1501.0245256999915,star,"(-480.0, 270.0)",0,4046.4894000033382,815.1128999888897,True,False
13,3,1501.0414367000049,star,"(-480.0, 270.0)",0,4063.4004000166897,832.0239000022411,True,False
13,3,1501.0579563000065,star,"(-480.0, 270.0)",0,4079.920000018319,848.5435000038706,True,False
13,3,1501.0752207000041,star,"(-480.0, 270.0)",0,4097.184400015976,865.8079000015277,True,False
13,3,1501.0905296999845,star,"(-480.0, 270.0)",0,4112.4933999963105,881.1168999818619,True,False
13,3,1501.108173399989,star,"(-480.0, 270.0)",0,4130.137100000866,898.7605999864172,True,False
13,3,1501.1243171999813,star,"(-480.0, 270.0)",0,4146.280899993144,914.9043999786954,True,False
13,3,1501.1412638000038,star,"(-480.0, 270.0)",0,4163.227500015637,931.8510000011884,True,False
13,3,1501.1584009999933,star,"(-480.0, 270.0)",0,4180.364700005157,948.9881999907084,True,False
13,3,1501.1749336000066,star,"(-480.0, 270.0)",0,4196.897300018463,965.5208000040147,True,False
13,3,1501.1907446999976,star,"(-480.0, 270.0)",0,4212.708400009433,981.3318999949843,True,False
13,3,1501.2080875999818,star,"(-480.0, 270.0)",0,4230.051299993647,998.6747999791987,True,False
13,3,1501.224436599994,star,"(-480.0, 270.0)",0,4246.4003000059165,1015.023799991468,True,False
13,3,1501.2413205000048,star,"(-480.0, 270.0)",0,4263.284200016642,1031.9077000021935,True,False
13,3,1501.257887099986,star,"(-480.0, 270.0)",0,4279.850799997803,1048.4742999833543,True,False
13,3,1501.2744051000045,star,"(-480.0, 270.0)",0,4296.368800016353,1064.9923000019044,True,False
13,3,1501.2911404999904,star,"(-480.0, 270.0)",0,4313.104200002272,1081.7276999878231,True,False
13,3,1501.3083419000031,star,"(-480.0, 270.0)",0,4330.305600014981,1098.9291000005323,True,False
13,3,1501.3245938000036,star,"(-480.0, 270.0)",0,4346.557500015479,1115.18100000103,True,False
13,3,1501.345144699997,star,"(-480.0, 270.0)",0,4367.108400008874,1135.7318999944255,True,False
13,3,1501.3589864999813,star,"(-480.0, 270.0)",0,4380.950199993094,1149.573699978646,True,False
13,3,1501.3746196999855,star,"(-480.0, 270.0)",0,4396.583399997326,1165.206899982877,True,False
13,3,1501.3903082000033,star,"(-480.0, 270.0)",0,4412.271900015185,1180.8954000007361,True,False
13,3,1501.4083887999877,star,"(-480.0, 270.0)",0,4430.352499999572,1198.975999985123,True,False
13,3,1501.424021599989,star,"(-480.0, 270.0)",0,4445.985300000757,1214.6087999863084,True,False
13,3,1501.4412950999977,star,"(-480.0, 270.0)",0,4463.258800009498,1231.8822999950498,True,False
13,3,1501.4577325999853,star,"(-480.0, 270.0)",0,4479.696299997158,1248.3197999827098,True,False
13,3,1501.474928599986,star,"(-480.0, 270.0)",0,4496.892299997853,1265.5157999834046,True,False
13,3,1501.4909222999995,star,"(-480.0, 270.0)",0,4512.886000011349,1281.5094999969006,True,False
13,3,1501.508144099993,star,"(-480.0, 270.0)",0,4530.107800004771,1298.7312999903224,True,False
13,3,1501.5243275999965,star,"(-480.0, 270.0)",0,4546.291300008306,1314.9147999938577,True,False
13,3,1501.5414784000022,star,"(-480.0, 270.0)",0,4563.442100014072,1332.0655999996234,True,False
13,3,1501.5578477999952,star,"(-480.0, 270.0)",0,4579.811500007054,1348.4349999926053,True,False
13,3,1501.574601900007,star,"(-480.0, 270.0)",0,4596.565600018948,1365.1891000044998,True,False
13,3,1501.5909090999921,star,"(-480.0, 270.0)",0,4612.87280000397,1381.4962999895215,True,False
13,3,1501.6081716000044,star,"(-480.0, 270.0)",0,4630.1353000162635,1398.758800001815,True,False
13,3,1501.6241052999976,star,"(-480.0, 270.0)",0,4646.069000009447,1414.6924999949988,True,False
13,3,1501.6412695999898,star,"(-480.0, 270.0)",0,4663.233300001593,1431.8567999871448,True,False
13,3,1501.6577469999902,star,"(-480.0, 270.0)",0,4679.710700002033,1448.3341999875847,True,False
13,3,1501.6749074999825,star,"(-480.0, 270.0)",0,4696.871199994348,1465.4946999798995,True,False
13,3,1501.6906127999828,star,"(-480.0, 270.0)",0,4712.576499994611,1481.1999999801628,True,False
13,3,1501.7081179999805,star,"(-480.0, 270.0)",0,4730.081699992297,1498.7051999778487,True,False
13,3,1501.7101862999843,cross,"(480.0, -270.0)",266.6738999832887,4732.149999996182,1500.773499981733,True,False
13,3,1501.7276344999846,cross,"(480.0, -270.0)",0,4749.598199996399,1518.2216999819502,True,False
13,3,1501.741009499994,cross,"(480.0, -270.0)",0,4762.973200005945,1531.5966999914963,True,False
13,3,1501.7574728000036,cross,"(480.0, -270.0)",0,4779.436500015436,1548.0600000009872,True,False
13,3,1501.7747704999929,cross,"(480.0, -270.0)",0,4796.734200004721,1565.3576999902725,True,False
13,3,1501.7909336999874,cross,"(480.0, -270.0)",0,4812.897399999201,1581.5208999847528,True,False
13,3,1501.8082047000062,cross,"(480.0, -270.0)",0,4830.16840001801,1598.7919000035618,True,False
13,3,1501.8242782999878,cross,"(480.0, -270.0)",0,4846.24199999962,1614.8654999851715,True,False
13,3,1501.8412909999897,cross,"(480.0, -270.0)",0,4863.254700001562,1631.8781999871135,True,False
13,3,1501.8575790000032,cross,"(480.0, -270.0)",0,4879.542700015008,1648.16620000056,True,False
13,3,1501.8751165999856,cross,"(480.0, -270.0)",0,4897.080299997469,1665.7037999830209,True,False
13,3,1501.8910706999886,cross,"(480.0, -270.0)",0,4913.03440000047,1681.6578999860212,True,False
13,3,1501.908434699988,cross,"(480.0, -270.0)",0,4930.398399999831,1699.0218999853823,True,False
13,3,1501.9242431999883,cross,"(480.0, -270.0)",0,4946.2069000001065,1714.830399985658,True,False
13,3,1501.9417634999845,cross,"(480.0, -270.0)",0,4963.727199996356,1732.3506999819074,True,False
13,3,1501.9585484999989,cross,"(480.0, -270.0)",0,4980.512200010708,1749.135699996259,True,False
13,3,1501.9749034999986,cross,"(480.0, -270.0)",0,4996.867200010456,1765.4906999960076,True,False
13,3,1501.990955699992,cross,"(480.0, -270.0)",0,5012.919400003739,1781.5428999892902,True,False
14,1,1510.8214879999869,t,"(480.0, 270.0)",266.2867000035476,1562.8476999991108,1562.8476999991108,False,True
14,2,1511.0876353000058,t,"(480.0, 270.0)",262.94870002311654,1828.9950000180397,266.14730001892895,True,False
14,2,1511.1073723000009,t,"(480.0, 270.0)",0,1848.7320000131149,285.8843000140041,True,False
14,2,1511.1226172999886,t,"(480.0, 270.0)",0,1863.9770000008866,301.12930000177585,True,False
14,2,1511.1386419000046,t,"(480.0, 270.0)",0,1880.0016000168398,317.15390001772903,True,False
14,2,1511.1546846999845,t,"(480.0, 270.0)",0,1896.0443999967538,333.196699997643,True,False
14,2,1511.1722437999852,t,"(480.0, 270.0)",0,1913.6034999974072,350.7557999982964,True,False
14,2,1511.187847299996,t,"(480.0, 270.0)",0,1929.2070000083186,366.3593000092078,True,False
14,2,1511.2054304000048,t,"(480.0, 270.0)",0,1946.7901000170968,383.9424000179861,True,False
14,2,1511.2220348999836,t,"(480.0, 270.0)",0,1963.3945999958087,400.5468999966979,True,False
14,2,1511.2380524000037,t,"(480.0, 270.0)",0,1979.4121000159066,416.56440001679584,True,False
14,2,1511.2549121000047,t,"(480.0, 270.0)",0,1996.2718000169843,433.42410001787357,True,False
14,2,1511.2719369999832,t,"(480.0, 270.0)",0,2013.2966999954078,450.44899999629706,True,False
14,2,1511.2877621999942,t,"(480.0, 270.0)",0,2029.1219000064302,466.27420000731945,True,False
14,2,1511.3053827999975,t,"(480.0, 270.0)",0,2046.7425000097137,483.8948000106029,True,False
14,2,1511.3210282000073,t,"(480.0, 270.0)",0,2062.38790001953,499.54020002041943,True,False
14,2,1511.3386560000072,t,"(480.0, 270.0)",0,2080.0157000194304,517.1680000203196,True,False
14,2,1511.3553385999985,t,"(480.0, 270.0)",0,2096.6983000107575,533.8506000116467,True,False
14,2,1511.3724722999905,t,"(480.0, 270.0)",0,2113.8320000027306,550.9843000036199,True,False
14,2,1511.3874625999888,t,"(480.0, 270.0)",0,2128.8223000010476,565.9746000019368,True,False
14,2,1511.4056041000003,t,"(480.0, 270.0)",0,2146.9638000125997,584.1161000134889,True,False
14,2,1511.4206469999917,t,"(480.0, 270.0)",0,2162.0067000039853,599.1590000048745,True,False
14,2,1511.437888799992,t,"(480.0, 270.0)",0,2179.248500004178,616.4008000050671,True,False
14,2,1511.4570550000062,t,"(480.0, 270.0)",0,2198.414700018475,635.5670000193641,True,False
14,2,1511.472474099981,t,"(480.0, 270.0)",0,2213.8337999931537,650.9860999940429,True,False
14,2,1511.4873179999995,t,"(480.0, 270.0)",0,2228.677700011758,665.8300000126474,True,False
14,2,1511.5053105999832,t,"(480.0, 270.0)",0,2246.6702999954578,683.822599996347,True,False
14,2,1511.5216544999857,t,"(480.0, 270.0)",0,2263.014199997997,700.1664999988861,True,False
14,2,1511.5384674999805,t,"(480.0, 270.0)",0,2279.8271999927238,716.979499993613,True,False
14,2,1511.554722300003,t,"(480.0, 270.0)",0,2296.0820000153035,733.2343000161927,True,False
14,2,1511.5722088000039,t,"(480.0, 270.0)",0,2313.5685000161175,750.7208000170067,True,False
14,2,1511.5877825999924,t,"(480.0, 270.0)",0,2329.142300004605,766.2946000054944,True,False
14,2,1511.6069584999932,t,"(480.0, 270.0)",0,2348.318200005451,785.4705000063404,True,False
14,2,1511.6230668000062,t,"(480.0, 270.0)",0,2364.426500018453,801.5788000193425,True,False
14,2,1511.6380837000033,t,"(480.0, 270.0)",0,2379.443400015589,816.5957000164781,True,False
14,2,1511.6549732999993,t,"(480.0, 270.0)",0,2396.3330000115093,833.4853000123985,True,False
14,2,1511.6713560000062,t,"(480.0, 270.0)",0,2412.7157000184525,849.8680000193417,True,False
14,2,1511.6871604000044,t,"(480.0, 270.0)",0,2428.5201000166126,865.6724000175018,True,False
14,2,1511.7051647999906,t,"(480.0, 270.0)",0,2446.5245000028517,883.6768000037409,True,False
14,2,1511.721934000001,t,"(480.0, 270.0)",0,2463.2937000133097,900.446000014199,True,False
14,2,1511.7376453999896,t,"(480.0, 270.0)",0,2479.005100001814,916.1574000027031,True,False
14,2,1511.7542350000003,t,"(480.0, 270.0)",0,2495.594700012589,932.7470000134781,True,False
14,2,1511.7709782999882,t,"(480.0, 270.0)",0,2512.3380000004545,949.4903000013437,True,False
14,2,1511.7871026000066,t,"(480.0, 270.0)",0,2528.462300018873,965.6146000197623,True,False
14,2,1511.8048745999986,t,"(480.0, 270.0)",0,2546.2343000108376,983.3866000117268,True,False
14,2,1511.8206693999819,t,"(480.0, 270.0)",0,2562.029099994106,999.1813999949954,True,False
14,2,1511.837560999993,t,"(480.0, 270.0)",0,2578.9207000052556,1016.0730000061449,True,False
14,2,1511.8556123999879,t,"(480.0, 270.0)",0,2596.97210000013,1034.1244000010192,True,False
14,2,1511.872234199982,t,"(480.0, 270.0)",0,2613.5938999941573,1050.7461999950465,True,False
14,2,1511.8880962999829,t,"(480.0, 270.0)",0,2629.455999995116,1066.6082999960054,True,False
14,2,1511.9060452999838,t,"(480.0, 270.0)",0,2647.40499999607,1084.557299996959,True,False
14,2,1511.9207734999945,t,"(480.0, 270.0)",0,2662.1332000067923,1099.2855000076815,True,False
14,2,1511.938569799997,t,"(480.0, 270.0)",0,2679.929500009166,1117.0818000100553,True,False
14,2,1511.9539179999847,t,"(480.0, 270.0)",0,2695.27769999695,1132.4299999978393,True,False
14,2,1511.9714153999812,t,"(480.0, 270.0)",0,2712.7750999934506,1149.9273999943398,True,False
14,2,1511.9872495000018,t,"(480.0, 270.0)",0,2728.6092000140343,1165.7615000149235,True,False
14,2,1512.0045893999923,t,"(480.0, 270.0)",0,2745.949100004509,1183.1014000053983,True,False
14,2,1512.0205470999936,t,"(480.0, 270.0)",0,2761.906800005818,1199.059100006707,True,False
14,2,1512.0377338999824,t,"(480.0, 270.0)",0,2779.093599994667,1216.245899995556,True,False
14,2,1512.054146199982,t,"(480.0, 270.0)",0,2795.5058999941684,1232.6581999950577,True,False
14,2,1512.0719807999849,t,"(480.0, 270.0)",0,2813.340499997139,1250.4927999980282,True,False
14,2,1512.0875532999926,t,"(480.0, 270.0)",0,2828.9130000048317,1266.065300005721,True,False
14,2,1512.1044578999863,t,"(480.0, 270.0)",0,2845.817599998554,1282.9698999994434,True,False
14,2,1512.121152399981,t,"(480.0, 270.0)",0,2862.5120999931823,1299.6643999940716,True,False
14,2,1512.1386659999844,t,"(480.0, 270.0)",0,2880.0256999966223,1317.1779999975115,True,False
14,2,1512.1559833000065,t,"(480.0, 270.0)",0,2897.3430000187363,1334.4953000196256,True,False
14,2,1512.176939099998,t,"(480.0, 270.0)",0,2918.298800010234,1355.4511000111233,True,False
14,2,1512.1913486999983,t,"(480.0, 270.0)",0,2932.708400010597,1369.8607000114862,True,False
14,2,1512.2059195000038,t,"(480.0, 270.0)",0,2947.2792000160553,1384.4315000169445,True,False
14,2,1512.221246400004,t,"(480.0, 270.0)",0,2962.6061000162736,1399.7584000171628,True,False
14,2,1512.2378352999804,t,"(480.0, 270.0)",0,2979.1949999926146,1416.3472999935038,True,False
14,2,1512.2539165999915,t,"(480.0, 270.0)",0,2995.276300003752,1432.4286000046413,True,False
14,2,1512.271041800006,t,"(480.0, 270.0)",0,3012.4015000183135,1449.5538000192028,True,False
14,2,1512.287470899988,t,"(480.0, 270.0)",0,3028.8306000002194,1465.9829000011086,True,False
14,2,1512.306223099993,t,"(480.0, 270.0)",0,3047.58280000533,1484.735100006219,True,False
14,2,1512.3085807999887,star,"(-480.0, 270.0)",252.35870000324212,3049.9405000009574,1487.0928000018466,True,False
14,2,1512.3280253999983,star,"(-480.0, 270.0)",0,3069.3851000105496,1506.5374000114389,True,False
14,2,1512.3469553999894,star,"(-480.0, 270.0)",0,3088.315100001637,1525.4674000025261,True,False
14,2,1512.3772879999888,star,"(-480.0, 270.0)",0,3118.64770000102,1555.8000000019092,True,False
14,2,1512.397859699995,star,"(-480.0, 270.0)",0,3139.2194000072777,1576.371700008167,True,False
14,2,1512.4198474999866,star,"(-480.0, 270.0)",0,3161.2071999988984,1598.3594999997877,True,False
14,2,1512.453696499986,star,"(-480.0, 270.0)",0,3195.056199998362,1632.2084999992512,True,False
14,2,1512.482037299982,star,"(-480.0, 270.0)",0,3223.396999994293,1660.549299995182,True,False
14,2,1512.5039990999794,star,"(-480.0, 270.0)",0,3245.3587999916635,1682.5110999925528,True,False
14,2,1512.520841199992,star,"(-480.0, 270.0)",0,3262.2009000042453,1699.3532000051346,True,False
14,2,1512.5366365999798,star,"(-480.0, 270.0)",0,3277.9962999920826,1715.1485999929719,True,False
14,2,1512.5538043999986,star,"(-480.0, 270.0)",0,3295.1641000108793,1732.3164000117686,True,False
14,2,1512.5696294999798,star,"(-480.0, 270.0)",0,3310.9891999920364,1748.1414999929257,True,False
14,2,1512.5865849999827,star,"(-480.0, 270.0)",0,3327.944699994987,1765.096999995876,True,False
14,2,1512.6034562999848,star,"(-480.0, 270.0)",0,3344.8159999970812,1781.9682999979705,True,False
14,2,1512.6201019999862,star,"(-480.0, 270.0)",0,3361.461699998472,1798.613999999361,True,False
14,2,1513.4534823999857,star,"(-480.0, 270.0)",267.0289999805391,4194.8420999979135,2631.9943999988027,False,True
14,3,1513.7207870999991,star,"(-480.0, 270.0)",263.92729999497533,4462.146800011396,267.30470001348294,True,False
14,3,1513.7392401999969,star,"(-480.0, 270.0)",0,4480.599900009111,285.7578000111971,True,False
14,3,1513.7543883000035,star,"(-480.0, 270.0)",0,4495.7480000157375,300.905900017824,True,False
14,3,1513.7702529999951,star,"(-480.0, 270.0)",0,4511.61270000739,316.77060000947677,True,False
14,3,1513.7870192999835,star,"(-480.0, 270.0)",0,4528.378999995766,333.53689999785274,True,False
14,3,1513.8032370999863,star,"(-480.0, 270.0)",0,4544.596799998544,349.7547000006307,True,False
14,3,1513.8204626000079,star,"(-480.0, 270.0)",0,4561.82230002014,366.9802000222262,True,False
14,3,1513.8367214000027,star,"(-480.0, 270.0)",0,4578.08110001497,383.23900001705624,True,False
14,3,1513.8540678999852,star,"(-480.0, 270.0)",0,4595.4275999974925,400.58549999957904,True,False
14,3,1513.8699820000038,star,"(-480.0, 270.0)",0,4611.341700016055,416.4996000181418,True,False
14,3,1513.8865789999836,star,"(-480.0, 270.0)",0,4627.938699995866,433.0965999979526,True,False
14,3,1513.9030995999929,star,"(-480.0, 270.0)",0,4644.45930000511,449.6172000071965,True,False
14,3,1513.9201543999952,star,"(-480.0, 270.0)",0,4661.51410000748,466.67200000956655,True,False
14,3,1513.936300500005,star,"(-480.0, 270.0)",0,4677.660200017272,482.8181000193581,True,False
14,3,1513.9546291999868,star,"(-480.0, 270.0)",0,4695.988899999065,501.14680000115186,True,False
14,3,1513.973265699984,star,"(-480.0, 270.0)",0,4714.625399996294,519.7832999983802,True,False
14,3,1513.9910265000071,star,"(-480.0, 270.0)",0,4732.386200019391,537.5441000214778,True,False
14,3,1514.0060011000023,star,"(-480.0, 270.0)",0,4747.360800014576,552.5187000166625,True,False
14,3,1514.0224640999804,star,"(-480.0, 270.0)",0,4763.823799992679,568.9816999947652,True,False
14,3,1514.040106200002,star,"(-480.0, 270.0)",0,4781.465900014155,586.6238000162411,True,False
14,3,1514.054789899994,star,"(-480.0, 270.0)",0,4796.149600006174,601.3075000082608,True,False
14,3,1514.0700557999953,star,"(-480.0, 270.0)",0,4811.41550000757,616.5734000096563,True,False
14,3,1514.086926899996,star,"(-480.0, 270.0)",0,4828.286600008141,633.4445000102278,True,False
14,3,1514.1034095000068,star,"(-480.0, 270.0)",0,4844.769200019073,649.9271000211593,True,False
14,3,1514.1205269999919,star,"(-480.0, 270.0)",0,4861.886700004106,667.0446000061929,True,False
14,3,1514.1361259999976,star,"(-480.0, 270.0)",0,4877.485700009856,682.6436000119429,True,False
14,3,1514.1538163000077,star,"(-480.0, 270.0)",0,4895.176000020001,700.3339000220876,True,False
14,3,1514.1704290999915,star,"(-480.0, 270.0)",0,4911.788800003706,716.9467000057921,True,False
14,3,1514.186860899994,star,"(-480.0, 270.0)",0,4928.220600006171,733.3785000082571,True,False
14,3,1514.2032814999984,star,"(-480.0, 270.0)",0,4944.641200010665,749.7991000127513,True,False
14,3,1514.220961199986,star,"(-480.0, 270.0)",0,4962.3208999983035,767.47880000039,True,False
14,3,1514.236238499987,star,"(-480.0, 270.0)",0,4977.598199999193,782.7561000012793,True,False
14,3,1514.2542691999988,star,"(-480.0, 270.0)",0,4995.62890001107,800.7868000131566,True,False
14,3,1514.2696315000067,star,"(-480.0, 270.0)",0,5010.991200018907,816.1491000209935,True,False
14,3,1514.2869479999936,star,"(-480.0, 270.0)",0,5028.307700005826,833.4656000079121,True,False
14,3,1514.303215299995,star,"(-480.0, 270.0)",0,5044.575000007171,849.7329000092577,True,False
14,3,1514.320646999986,star,"(-480.0, 270.0)",0,5062.006699998165,867.1646000002511,True,False
14,3,1514.3364204999816,star,"(-480.0, 270.0)",0,5077.780199993867,882.938099995954,True,False
14,3,1514.3535237000033,star,"(-480.0, 270.0)",0,5094.883400015533,900.0413000176195,True,False
14,3,1514.369497799984,star,"(-480.0, 270.0)",0,5110.8574999962,916.0153999982867,True,False
14,3,1514.3866424000007,star,"(-480.0, 270.0)",0,5128.002100012964,933.1600000150502,True,False
14,3,1514.402904699993,star,"(-480.0, 270.0)",0,5144.264400005341,949.4223000074271,True,False
14,3,1514.4199941999977,star,"(-480.0, 270.0)",0,5161.353900009999,966.5118000120856,True,False
14,3,1514.4360977000033,star,"(-480.0, 270.0)",0,5177.457400015555,982.6153000176419,True,False
14,3,1514.4537356999936,star,"(-480.0, 270.0)",0,5195.095400005812,1000.2533000078984,True,False
14,3,1514.4699585000053,star,"(-480.0, 270.0)",0,5211.318200017558,1016.476100019645,True,False
14,3,1514.4867669999949,star,"(-480.0, 270.0)",0,5228.126700007124,1033.2846000092104,True,False
14,3,1514.5035713999823,star,"(-480.0, 270.0)",0,5244.931099994574,1050.0889999966603,True,False
14,3,1514.5206245000008,star,"(-480.0, 270.0)",0,5261.984200013103,1067.1421000151895,True,False
14,3,1514.5362429999805,star,"(-480.0, 270.0)",0,5277.602699992713,1082.7605999947991,True,False
14,3,1514.5538860999804,star,"(-480.0, 270.0)",0,5295.245799992699,1100.4036999947857,True,False
14,3,1514.5697088000015,star,"(-480.0, 270.0)",0,5311.068500013789,1116.2264000158757,True,False
14,3,1514.5867412999796,star,"(-480.0, 270.0)",0,5328.100999991875,1133.2588999939617,True,False
14,3,1514.602945599996,star,"(-480.0, 270.0)",0,5344.305300008273,1149.4632000103593,True,False
14,3,1514.6200831999886,star,"(-480.0, 270.0)",0,5361.442900000839,1166.600800002925,True,False
14,3,1514.6357872999797,star,"(-480.0, 270.0)",0,5377.146999991965,1182.304899994051,True,False
14,3,1514.6538182999939,star,"(-480.0, 270.0)",0,5395.178000006126,1200.3359000082128,True,False
14,3,1514.6695248000033,star,"(-480.0, 270.0)",0,5410.884500015527,1216.0424000176135,True,False
14,3,1514.6868059999833,star,"(-480.0, 270.0)",0,5428.1656999955885,1233.323599997675,True,False
14,3,1514.7033001999953,star,"(-480.0, 270.0)",0,5444.659900007537,1249.8178000096232,True,False
14,3,1514.7203855999978,star,"(-480.0, 270.0)",0,5461.7453000100795,1266.903200012166,True,False
14,3,1514.736423299997,star,"(-480.0, 270.0)",0,5477.783000009367,1282.9409000114538,True,False
14,3,1514.754167999985,star,"(-480.0, 270.0)",0,5495.527699997183,1300.6855999992695,True,False
14,3,1514.7699506999925,star,"(-480.0, 270.0)",0,5511.3104000047315,1316.468300006818,True,False
14,3,1514.7864320999943,star,"(-480.0, 270.0)",0,5527.791800006526,1332.9497000086121,True,False
14,3,1514.8033075999992,star,"(-480.0, 270.0)",0,5544.667300011497,1349.8252000135835,True,False
14,3,1514.8199736999813,star,"(-480.0, 270.0)",0,5561.3333999936,1366.4912999956869,True,False
14,3,1514.8362001999922,star,"(-480.0, 270.0)",0,5577.559900004417,1382.7178000065032,True,False
14,3,1514.8538029000047,star,"(-480.0, 270.0)",0,5595.16260001692,1400.3205000190064,True,False
14,3,1514.8694721999927,star,"(-480.0, 270.0)",0,5610.831900004996,1415.9898000070825,True,False
14,3,1514.8865308999957,star,"(-480.0, 270.0)",0,5627.890600007959,1433.0485000100452,True,False
14,3,1514.902815599984,star,"(-480.0, 270.0)",0,5644.175299996277,1449.3331999983639,True,False
14,3,1514.9200837999815,star,"(-480.0, 270.0)",0,5661.443499993766,1466.6013999958523,True,False
14,3,1514.9361627000035,star,"(-480.0, 270.0)",0,5677.522400015732,1482.6803000178188,True,False
14,3,1514.953354600002,star,"(-480.0, 270.0)",0,5694.714300014311,1499.872200016398,True,False
14,3,1514.9697000999877,star,"(-480.0, 270.0)",0,5711.05979999993,1516.2177000020165,True,False
14,3,1514.9865586999804,star,"(-480.0, 270.0)",0,5727.918399992632,1533.0762999947183,True,False
14,3,1515.0032128999883,star,"(-480.0, 270.0)",0,5744.572600000538,1549.7305000026245,True,False
14,3,1515.0202163000067,star,"(-480.0, 270.0)",0,5761.576000018977,1566.7339000210632,True,False
14,3,1515.0364204999933,star,"(-480.0, 270.0)",0,5777.780200005509,1582.9381000075955,True,False
14,3,1515.0535120999848,star,"(-480.0, 270.0)",0,5794.871799997054,1600.0296999991406,True,False
14,3,1515.0697460999945,star,"(-480.0, 270.0)",0,5811.1058000067715,1616.263700008858,True,False
14,3,1515.0865875000018,star,"(-480.0, 270.0)",0,5827.947200014023,1633.1051000161096,True,False
14,3,1515.1034861999797,star,"(-480.0, 270.0)",0,5844.845899991924,1650.0037999940105,True,False
14,3,1515.1199067999842,star,"(-480.0, 270.0)",0,5861.266499996418,1666.4243999985047,True,False
14,3,1515.1358525999822,star,"(-480.0, 270.0)",0,5877.212299994426,1682.3701999965124,True,False
14,3,1515.1533084999828,star,"(-480.0, 270.0)",0,5894.668199995067,1699.8260999971535,True,False
14,3,1515.1695707000035,star,"(-480.0, 270.0)",0,5910.930400015786,1716.0883000178728,True,False
14,3,1515.187388899998,star,"(-480.0, 270.0)",0,5928.7486000102945,1733.906500012381,True,False
14,3,1515.2038746000035,star,"(-480.0, 270.0)",0,5945.234300015727,1750.3922000178136,True,False
14,3,1515.220761500008,star,"(-480.0, 270.0)",0,5962.121200020192,1767.2791000222787,True,False
14,3,1515.2360135999916,star,"(-480.0, 270.0)",0,5977.373300003819,1782.5312000059057,True,False
14,3,1515.2534258999804,star,"(-480.0, 270.0)",0,5994.7855999926105,1799.943499994697,True,False
14,3,1516.5859562999976,cross,"(480.0, -270.0)",265.88900000206195,7327.316000009887,3132.4739000119735,False,True
15,1,1533.3646149999986,t,"(480.0, 270.0)",250.2892000193242,980.5745000194293,980.5745000194293,False,True
15,2,1533.782482599985,cross,"(480.0, -270.0)",266.0691999772098,1398.4421000059228,417.8675999864936,True,False
15,2,1533.8024800999847,cross,"(480.0, -270.0)",0,1418.439600005513,437.8650999860838,True,False
15,2,1533.817100699991,cross,"(480.0, -270.0)",0,1433.0602000118233,452.4856999923941,True,False
15,2,1533.833865499997,cross,"(480.0, -270.0)",0,1449.8250000178814,469.25049999845214,True,False
15,2,1533.8504954999953,cross,"(480.0, -270.0)",0,1466.4550000161398,485.88049999671057,True,False
15,2,1533.8653862999927,cross,"(480.0, -270.0)",0,1481.3458000135142,500.771299994085,True,False
15,2,1533.8821606999845,cross,"(480.0, -270.0)",0,1498.12020000536,517.5456999859307,True,False
15,2,1533.8990513999888,cross,"(480.0, -270.0)",0,1515.0109000096563,534.4363999902271,True,False
15,2,1533.9160798999947,cross,"(480.0, -270.0)",0,1532.039400015492,551.4648999960627,True,False
15,2,1533.9312654999958,cross,"(480.0, -270.0)",0,1547.225000016624,566.6504999971949,True,False
15,2,1533.949554699997,cross,"(480.0, -270.0)",0,1565.5142000177875,584.9396999983583,True,False
15,2,1533.9655538999941,cross,"(480.0, -270.0)",0,1581.5134000149556,600.9388999955263,True,False
15,2,1533.9816868999915,cross,"(480.0, -270.0)",0,1597.6464000123087,617.0718999928795,True,False
15,2,1533.9985138000047,cross,"(480.0, -270.0)",0,1614.4733000255655,633.8988000061363,True,False
15,2,1534.0165357000078,cross,"(480.0, -270.0)",0,1632.495200028643,651.9207000092138,True,False
15,2,1534.0324288999836,cross,"(480.0, -270.0)",0,1648.3884000044782,667.8138999850489,True,False
15,2,1534.0504605000024,cross,"(480.0, -270.0)",0,1666.4200000232086,685.8455000037793,True,False
15,2,1534.0694397999905,cross,"(480.0, -270.0)",0,1685.3993000113405,704.8247999919113,True,False
15,2,1534.0829130999919,cross,"(480.0, -270.0)",0,1698.8726000126917,718.2980999932624,True,False
15,2,1534.0990969999984,cross,"(480.0, -270.0)",0,1715.0565000192728,734.4819999998435,True,False
15,2,1534.114512500004,cross,"(480.0, -270.0)",0,1730.472000024747,749.8975000053179,True,False
15,2,1534.1311211999855,cross,"(480.0, -270.0)",0,1747.080700006336,766.5061999869067,True,False
15,2,1534.1480981000059,cross,"(480.0, -270.0)",0,1764.0576000267174,783.4831000072882,True,False
15,2,1534.1657784999989,cross,"(480.0, -270.0)",0,1781.7380000196863,801.163500000257,True,False
15,2,1534.180905199988,cross,"(480.0, -270.0)",0,1796.8647000088822,816.290199989453,True,False
15,2,1534.1984001999954,cross,"(480.0, -270.0)",0,1814.3597000162117,833.7851999967825,True,False
15,2,1534.2149527999863,cross,"(480.0, -270.0)",0,1830.912300007185,850.3377999877557,True,False
15,2,1534.2169103999913,t,"(480.0, 270.0)",265.52749998518266,1832.869900012156,852.2953999927267,True,False
15,2,1534.2339109999884,t,"(480.0, 270.0)",0,1849.870500009274,869.2959999898449,True,False
15,2,1534.2481127000065,t,"(480.0, 270.0)",0,1864.0722000272945,883.4977000078652,True,False
15,2,1534.26469359998,t,"(480.0, 270.0)",0,1880.6531000009272,900.078599981498,True,False
15,2,1534.280521699984,t,"(480.0, 270.0)",0,1896.4812000049278,915.9066999854986,True,False
15,2,1534.3006650999887,t,"(480.0, 270.0)",0,1916.624600009527,936.0500999900978,True,False
15,2,1534.3157247999916,t,"(480.0, 270.0)",0,1931.6843000124209,951.1097999929916,True,False
15,2,1534.3362362000044,t,"(480.0, 270.0)",0,1952.195700025186,971.6212000057567,True,False
15,2,1534.3638735999994,t,"(480.0, 270.0)",0,1979.833100020187,999.2586000007577,True,False
15,2,1534.3805040000007,t,"(480.0, 270.0)",0,1996.4635000214912,1015.889000002062,True,False
15,2,1534.3981501999951,t,"(480.0, 270.0)",0,2014.109700015979,1033.5351999965496,True,False
15,2,1534.4144717000017,t,"(480.0, 270.0)",0,2030.4312000225764,1049.8567000031471,True,False
15,2,1534.4318396000017,t,"(480.0, 270.0)",0,2047.7991000225302,1067.224600003101,True,False
15,2,1534.4482410000055,t,"(480.0, 270.0)",0,2064.2005000263453,1083.626000006916,True,False
15,2,1534.464342399995,t,"(480.0, 270.0)",0,2080.301900015911,1099.7273999964818,True,False
15,2,1534.480985000002,t,"(480.0, 270.0)",0,2096.9445000228006,1116.3700000033714,True,False
15,2,1534.4990392999898,t,"(480.0, 270.0)",0,2114.998800010653,1134.424299991224,True,False
15,2,1534.5150230999861,t,"(480.0, 270.0)",0,2130.9826000069734,1150.4080999875441,True,False
15,2,1534.5313185999985,t,"(480.0, 270.0)",0,2147.278100019321,1166.7035999998916,True,False
15,2,1534.5492127999896,t,"(480.0, 270.0)",0,2165.172300010454,1184.5977999910247,True,False
15,2,1534.566212899983,t,"(480.0, 270.0)",0,2182.172400003765,1201.5978999843355,True,False
15,2,1534.580998599995,t,"(480.0, 270.0)",0,2196.958100015763,1216.383599996334,True,False
15,2,1534.6002143999794,t,"(480.0, 270.0)",0,2216.1739000002854,1235.599399980856,True,False
15,2,1534.6148407,t,"(480.0, 270.0)",0,2230.8002000208944,1250.2257000014652,True,False
15,2,1534.630598799995,t,"(480.0, 270.0)",0,2246.5583000157494,1265.9837999963202,True,False
15,2,1534.648862300004,t,"(480.0, 270.0)",0,2264.821800024947,1284.247300005518,True,False
15,2,1534.66596329998,t,"(480.0, 270.0)",0,2281.922800000757,1301.3482999813277,True,False
15,2,1534.6812805999944,t,"(480.0, 270.0)",0,2297.2401000151876,1316.6655999957584,True,False
15,2,1534.69897149998,t,"(480.0, 270.0)",0,2314.931000000797,1334.356499981368,True,False
15,2,1534.715730900003,t,"(480.0, 270.0)",0,2331.6904000239447,1351.1159000045154,True,False
15,2,1534.7310622000077,t,"(480.0, 270.0)",0,2347.021700028563,1366.4472000091337,True,False
15,2,1534.7484503999876,t,"(480.0, 270.0)",0,2364.409900008468,1383.8353999890387,True,False
15,2,1534.765449300001,t,"(480.0, 270.0)",0,2381.4088000217453,1400.834300002316,True,False
15,2,1534.7827939999988,t,"(480.0, 270.0)",0,2398.753500019666,1418.1790000002366,True,False
15,2,1534.800888400001,t,"(480.0, 270.0)",0,2416.8479000218213,1436.273400002392,True,False
15,2,1534.8215157999948,t,"(480.0, 270.0)",0,2437.475300015649,1456.9007999962196,True,False
15,2,1534.8385497999843,t,"(480.0, 270.0)",0,2454.5093000051565,1473.9347999857273,True,False
15,2,1534.862988399982,t,"(480.0, 270.0)",0,2478.9479000028223,1498.373399983393,True,False
15,2,1534.8819078999804,t,"(480.0, 270.0)",0,2497.867400001269,1517.2928999818396,True,False
15,2,1534.8982520999853,t,"(480.0, 270.0)",0,2514.2116000060923,1533.637099986663,True,False
15,2,1534.9149184999987,t,"(480.0, 270.0)",0,2530.878000019584,1550.3035000001546,True,False
15,2,1534.930745199992,t,"(480.0, 270.0)",0,2546.704700012924,1566.130199993495,True,False
15,2,1534.948047999991,t,"(480.0, 270.0)",0,2564.0075000119396,1583.4329999925103,True,False
15,2,1534.964513599989,t,"(480.0, 270.0)",0,2580.47310000984,1599.8985999904107,True,False
15,2,1534.9808450999844,t,"(480.0, 270.0)",0,2596.804600005271,1616.2300999858417,True,False
15,2,1534.998051100003,t,"(480.0, 270.0)",0,2614.010600023903,1633.4361000044737,True,False
15,2,1535.0158915999928,t,"(480.0, 270.0)",0,2631.8511000135913,1651.276599994162,True,False
15,2,1535.0298746000044,t,"(480.0, 270.0)",0,2645.8341000252403,1665.259600005811,True,False
15,2,1535.0499974999984,t,"(480.0, 270.0)",0,2665.9570000192616,1685.3824999998324,True,False
15,2,1535.0656509999826,t,"(480.0, 270.0)",0,2681.610500003444,1701.0359999840148,True,False
15,2,1535.0808895999799,t,"(480.0, 270.0)",0,2696.8491000006907,1716.2745999812614,True,False
15,2,1535.0980129999807,t,"(480.0, 270.0)",0,2713.972500001546,1733.3979999821167,True,False
15,2,1535.1156947999843,t,"(480.0, 270.0)",0,2731.654300005175,1751.079799985746,True,False
15,2,1535.130932,t,"(480.0, 270.0)",0,2746.8915000208654,1766.317000001436,True,False
15,2,1535.1482818000077,t,"(480.0, 270.0)",0,2764.241300028516,1783.6668000090867,True,False
15,2,1535.165457199997,t,"(480.0, 270.0)",0,2781.4167000178713,1800.842199998442,True,False
15,2,1537.0127877999912,circle,"(-480.0, -270.0)",250.24019999546,4628.747300012037,3648.172799992608,False,True
15,3,1537.2819510999834,circle,"(-480.0, -270.0)",266.1253999976907,4897.910600004252,269.1632999922149,True,False
15,3,1537.3002154999995,circle,"(-480.0, -270.0)",0,4916.175000020303,287.4277000082657,True,False
15,3,1537.3156522999925,circle,"(-480.0, -270.0)",0,4931.611800013343,302.8645000013057,True,False
15,3,1537.3301117999945,circle,"(-480.0, -270.0)",0,4946.071300015319,317.324000003282,True,False
15,3,1537.3479750999832,circle,"(-480.0, -270.0)",0,4963.934600003995,335.18729999195784,True,False
15,3,1537.362950699986,circle,"(-480.0, -270.0)",0,4978.910200006794,350.162899994757,True,False
15,3,1537.3800815999857,circle,"(-480.0, -270.0)",0,4996.041100006551,367.2937999945134,True,False
15,3,1537.397229299997,circle,"(-480.0, -270.0)",0,5013.188800017815,384.4415000057779,True,False
15,3,1537.4144519999973,circle,"(-480.0, -270.0)",0,5030.41150001809,401.66420000605285,True,False
15,3,1537.4299797999847,circle,"(-480.0, -270.0)",0,5045.939300005557,417.19199999351986,True,False
15,3,1537.4474150000024,circle,"(-480.0, -270.0)",0,5063.374500023201,434.62720001116395,True,False
15,3,1537.4642692999914,circle,"(-480.0, -270.0)",0,5080.228800012264,451.48150000022724,True,False
15,3,1537.4823259999976,circle,"(-480.0, -270.0)",0,5098.285500018392,469.5382000063546,True,False
15,3,1537.4960344999854,circle,"(-480.0, -270.0)",0,5111.994000006234,483.2466999941971,True,False
15,3,1537.5148753999965,circle,"(-480.0, -270.0)",0,5130.834900017362,502.08760000532493,True,False
15,3,1537.5295893999864,circle,"(-480.0, -270.0)",0,5145.54890000727,516.8015999952331,True,False
15,3,1537.5479026999965,circle,"(-480.0, -270.0)",0,5163.86220001732,535.1149000052828,True,False
15,3,1537.5638341000013,circle,"(-480.0, -270.0)",0,5179.793600022094,551.0463000100572,True,False
15,3,1537.5801511000027,circle,"(-480.0, -270.0)",0,5196.11060002353,567.3633000114933,True,False
15,3,1537.5973823999811,circle,"(-480.0, -270.0)",0,5213.3419000019785,584.5945999899413,True,False
15,3,1537.614616899984,circle,"(-480.0, -270.0)",0,5230.576400004793,601.8290999927558,True,False
15,3,1537.6298926000018,circle,"(-480.0, -270.0)",0,5245.852100022603,617.1048000105657,True,False
15,3,1537.6479672999994,circle,"(-480.0, -270.0)",0,5263.926800020272,635.1795000082348,True,False
15,3,1537.6643063999945,circle,"(-480.0, -270.0)",0,5280.265900015365,651.5186000033282,True,False
15,3,1537.6810364999983,circle,"(-480.0, -270.0)",0,5296.996000019135,668.2487000070978,True,False
15,3,1537.6970419999852,circle,"(-480.0, -270.0)",0,5313.001500006067,684.2541999940295,True,False
15,3,1537.7150237000023,circle,"(-480.0, -270.0)",0,5330.983200023184,702.2359000111464,True,False
15,3,1537.7291081000003,circle,"(-480.0, -270.0)",0,5345.067600021139,716.3203000091016,True,False
15,3,1537.7484138,circle,"(-480.0, -270.0)",0,5364.373300020816,735.6260000087786,True,False
15,3,1537.7687810999923,circle,"(-480.0, -270.0)",0,5384.740600013174,755.993300001137,True,False
15,3,1537.7959852000058,circle,"(-480.0, -270.0)",0,5411.944700026652,783.1974000146147,True,False
15,3,1537.8140633000003,circle,"(-480.0, -270.0)",0,5430.022800021106,801.2755000090692,True,False
15,3,1537.830739099998,circle,"(-480.0, -270.0)",0,5446.698600018863,817.9513000068255,True,False
15,3,1537.8479859000072,circle,"(-480.0, -270.0)",0,5463.945400028024,835.1981000159867,True,False
15,3,1537.8643116999883,circle,"(-480.0, -270.0)",0,5480.271200009156,851.5238999971189,True,False
15,3,1537.8809230999905,circle,"(-480.0, -270.0)",0,5496.882600011304,868.1352999992669,True,False
15,3,1537.897788000002,circle,"(-480.0, -270.0)",0,5513.747500022873,885.0002000108361,True,False
15,3,1537.9146973000024,circle,"(-480.0, -270.0)",0,5530.65680002328,901.9095000112429,True,False
15,3,1537.9310314999893,circle,"(-480.0, -270.0)",0,5546.991000010166,918.2436999981292,True,False
15,3,1537.948512300005,circle,"(-480.0, -270.0)",0,5564.471800025785,935.7245000137482,True,False
15,3,1537.962679999997,circle,"(-480.0, -270.0)",0,5578.639500017744,949.8922000057064,True,False
15,3,1537.9795518000028,circle,"(-480.0, -270.0)",0,5595.511300023645,966.764000011608,True,False
15,3,1537.9959335000021,circle,"(-480.0, -270.0)",0,5611.893000022974,983.1457000109367,True,False
15,3,1538.0152469000022,circle,"(-480.0, -270.0)",0,5631.206400023075,1002.4591000110377,True,False
15,3,1538.029666699993,circle,"(-480.0, -270.0)",0,5645.626200013794,1016.8789000017568,True,False
15,3,1538.0481601000065,circle,"(-480.0, -270.0)",0,5664.119600027334,1035.3723000152968,True,False
15,3,1538.0642506000004,circle,"(-480.0, -270.0)",0,5680.210100021213,1051.4628000091761,True,False
15,3,1538.0805924999877,circle,"(-480.0, -270.0)",0,5696.5520000085235,1067.8046999964863,True,False
15,3,1538.0964227999793,circle,"(-480.0, -270.0)",0,5712.382300000172,1083.634999988135,True,False
15,3,1538.1142677000025,circle,"(-480.0, -270.0)",0,5730.227200023364,1101.4799000113271,True,False
15,3,1538.1310067999875,circle,"(-480.0, -270.0)",0,5746.966300008353,1118.2189999963157,True,False
15,3,1538.147862599988,circle,"(-480.0, -270.0)",0,5763.822100008838,1135.0747999968007,True,False
15,3,1538.1639255000046,circle,"(-480.0, -270.0)",0,5779.885000025388,1151.1377000133507,True,False
15,3,1538.1808180999942,circle,"(-480.0, -270.0)",0,5796.777600015048,1168.0303000030108,True,False
15,3,1538.1975555999961,circle,"(-480.0, -270.0)",0,5813.515100016957,1184.76780000492,True,False
15,3,1538.2145759999985,circle,"(-480.0, -270.0)",0,5830.535500019323,1201.788200007286,True,False
15,3,1538.2308210000047,circle,"(-480.0, -270.0)",0,5846.780500025488,1218.0332000134513,True,False
15,3,1538.249166900001,circle,"(-480.0, -270.0)",0,5865.126400021836,1236.379100009799,True,False
15,3,1538.2647071999963,circle,"(-480.0, -270.0)",0,5880.666700017173,1251.9194000051357,True,False
15,3,1538.2811157999968,circle,"(-480.0, -270.0)",0,5897.075300017605,1268.3280000055674,True,False
15,3,1538.2982732999953,circle,"(-480.0, -270.0)",0,5914.23280001618,1285.4855000041425,True,False
15,3,1538.3146219000046,circle,"(-480.0, -270.0)",0,5930.581400025403,1301.834100013366,True,False
15,3,1538.3303745999874,circle,"(-480.0, -270.0)",0,5946.334100008244,1317.5867999962065,True,False
15,3,1538.3477196999884,circle,"(-480.0, -270.0)",0,5963.67920000921,1334.9318999971729,True,False
15,3,1538.3644977999793,circle,"(-480.0, -270.0)",0,5980.4573000001255,1351.7099999880884,True,False
15,3,1538.3812449999969,circle,"(-480.0, -270.0)",0,5997.204500017688,1368.4572000056505,True,False
15,3,1538.3975271999952,circle,"(-480.0, -270.0)",0,6013.486700016074,1384.7394000040367,True,False
15,3,1538.4145047999918,circle,"(-480.0, -270.0)",0,6030.464300012682,1401.7170000006445,True,False
15,3,1538.4309153000067,circle,"(-480.0, -270.0)",0,6046.874800027581,1418.1275000155438,True,False
15,3,1538.4477254999802,circle,"(-480.0, -270.0)",0,6063.685000000987,1434.93769998895,True,False
15,3,1538.4640438999922,circle,"(-480.0, -270.0)",0,6080.003400013084,1451.2561000010464,True,False
15,3,1538.48101649998,circle,"(-480.0, -270.0)",0,6096.976000000723,1468.2286999886855,True,False
15,3,1538.4978513999959,circle,"(-480.0, -270.0)",0,6113.810900016688,1485.0636000046507,True,False
15,3,1538.515804499999,circle,"(-480.0, -270.0)",0,6131.764000019757,1503.01670000772,True,False
15,3,1538.5290644000052,circle,"(-480.0, -270.0)",0,6145.02390002599,1516.2766000139527,True,False
15,3,1538.5490638999909,circle,"(-480.0, -270.0)",0,6165.023400011705,1536.276099999668,True,False
15,3,1538.5643636999885,circle,"(-480.0, -270.0)",0,6180.323200009298,1551.5758999972604,True,False
15,3,1538.584383199981,circle,"(-480.0, -270.0)",0,6200.342700001784,1571.5953999897465,True,False
15,3,1538.5993566999969,circle,"(-480.0, -270.0)",0,6215.316200017696,1586.568900005659,True,False
15,3,1538.6149252000032,circle,"(-480.0, -270.0)",0,6230.884700024035,1602.1374000119977,True,False
15,3,1538.6304033999913,circle,"(-480.0, -270.0)",0,6246.362900012173,1617.6156000001356,True,False
15,3,1538.6479037999816,circle,"(-480.0, -270.0)",0,6263.863300002413,1635.1159999903757,True,False
15,3,1538.6645696999913,circle,"(-480.0, -270.0)",0,6280.529200012097,1651.78190000006,True,False
15,3,1538.6815958999796,circle,"(-480.0, -270.0)",0,6297.5554000004195,1668.8080999883823,True,False
15,3,1538.6976512999972,circle,"(-480.0, -270.0)",0,6313.610800018068,1684.8635000060312,True,False
15,3,1538.7144749999861,circle,"(-480.0, -270.0)",0,6330.434500006959,1701.6871999949217,True,False
15,3,1538.730802599981,circle,"(-480.0, -270.0)",0,6346.762100001797,1718.01479998976,True,False
15,3,1538.7485266999865,circle,"(-480.0, -270.0)",0,6364.486200007377,1735.73889999534,True,False
15,3,1538.7651672000065,circle,"(-480.0, -270.0)",0,6381.12670002738,1752.379400015343,True,False
15,3,1538.7826814999862,circle,"(-480.0, -270.0)",0,6398.641000007046,1769.8936999950092,True,False
15,3,1539.3468081000028,star,"(-480.0, 270.0)",266.1060999962501,6962.767600023653,2334.020300011616,False,True
15,4,1542.2128187000053,t,"(480.0, 270.0)",266.5104000188876,9828.778200026136,2866.0106000024825,False,True
16,1,1546.377604999987,star,"(-480.0, 270.0)",265.406599995913,289.96080000069924,289.96080000069924,False,True
16,2,1546.644894099998,star,"(-480.0, 270.0)",263.6362999910489,557.2499000118114,267.28910001111217,True,False
16,2,1546.664416899992,star,"(-480.0, 270.0)",0,576.7727000056766,286.81190000497736,True,False
16,2,1546.6795653000008,star,"(-480.0, 270.0)",0,591.9211000145879,301.9603000138886,True,False
16,2,1546.6963662999915,star,"(-480.0, 270.0)",0,608.7221000052523,318.76130000455305,True,False
16,2,1546.7144744999823,star,"(-480.0, 270.0)",0,626.8302999960724,336.8694999953732,True,False
16,2,1546.7296110999887,star,"(-480.0, 270.0)",0,641.9669000024442,352.0061000017449,True,False
16,2,1546.745341700007,star,"(-480.0, 270.0)",0,657.6975000207312,367.736700020032,True,False
16,2,1546.761018499994,star,"(-480.0, 270.0)",0,673.3743000077084,383.41350000700913,True,False
16,2,1546.7777665999893,star,"(-480.0, 270.0)",0,690.1224000030197,400.1616000023205,True,False
16,2,1546.7940923999995,star,"(-480.0, 270.0)",0,706.4482000132557,416.48740001255646,True,False
16,2,1546.8112664000073,star,"(-480.0, 270.0)",0,723.6222000210546,433.66140002035536,True,False
16,2,1546.828147799999,star,"(-480.0, 270.0)",0,740.5036000127438,450.5428000120446,True,False
16,2,1546.8466813999985,star,"(-480.0, 270.0)",0,759.0372000122443,469.07640001154505,True,False
16,2,1546.8627841999987,star,"(-480.0, 270.0)",0,775.1400000124704,485.1792000117712,True,False
16,2,1546.8774266999972,star,"(-480.0, 270.0)",0,789.7825000109151,499.82170001021586,True,False
16,2,1546.8935607000021,star,"(-480.0, 270.0)",0,805.9165000158828,515.9557000151835,True,False
16,2,1546.9108747999999,star,"(-480.0, 270.0)",0,823.2306000136305,533.2698000129312,True,False
16,2,1546.9259812999808,star,"(-480.0, 270.0)",0,838.3370999945328,548.3762999938335,True,False
16,2,1546.9442338999943,star,"(-480.0, 270.0)",0,856.589700008044,566.6289000073448,True,False
16,2,1546.9610954999807,star,"(-480.0, 270.0)",0,873.4512999944855,583.4904999937862,True,False
16,2,1546.9784610999923,star,"(-480.0, 270.0)",0,890.8169000060298,600.8561000053305,True,False
16,2,1546.9944788999856,star,"(-480.0, 270.0)",0,906.8346999993082,616.873899998609,True,False
16,2,1547.0109675999847,star,"(-480.0, 270.0)",0,923.3233999984805,633.3625999977812,True,False
16,2,1547.027379999985,star,"(-480.0, 270.0)",0,939.7357999987435,649.7749999980442,True,False
16,2,1547.0440623000031,star,"(-480.0, 270.0)",0,956.4181000168901,666.4573000161909,True,False
16,2,1547.0602633999952,star,"(-480.0, 270.0)",0,972.6192000089213,682.6584000082221,True,False
16,2,1547.0776867999812,star,"(-480.0, 270.0)",0,990.042599994922,700.0817999942228,True,False
16,2,1547.0945194999804,star,"(-480.0, 270.0)",0,1006.8752999941353,716.914499993436,True,False
16,2,1547.109666799981,star,"(-480.0, 270.0)",0,1022.0225999946706,732.0617999939714,True,False
16,2,1547.1268282999808,star,"(-480.0, 270.0)",0,1039.1840999945998,749.2232999939006,True,False
16,2,1547.14907699998,star,"(-480.0, 270.0)",0,1061.4327999937814,771.4719999930821,True,False
16,2,1547.165362300002,star,"(-480.0, 270.0)",0,1077.7181000157725,787.7573000150733,True,False
16,2,1547.1943775999825,star,"(-480.0, 270.0)",0,1106.7333999963012,816.7725999956019,True,False
16,2,1547.2111596000032,star,"(-480.0, 270.0)",0,1123.5154000169132,833.554600016214,True,False
16,2,1547.2273344999994,star,"(-480.0, 270.0)",0,1139.6903000131715,849.7295000124723,True,False
16,2,1547.243996300007,star,"(-480.0, 270.0)",0,1156.3521000207402,866.391300020041,True,False
16,2,1547.2603543000005,star,"(-480.0, 270.0)",0,1172.7101000142284,882.7493000135291,True,False
16,2,1547.277501799981,star,"(-480.0, 270.0)",0,1189.8575999948662,899.8967999941669,True,False
16,2,1547.2929093999846,star,"(-480.0, 270.0)",0,1205.2651999983937,915.3043999976944,True,False
16,2,1547.3105146999878,star,"(-480.0, 270.0)",0,1222.8705000015907,932.9097000008915,True,False
16,2,1547.3275393999938,star,"(-480.0, 270.0)",0,1239.8952000075951,949.9344000068959,True,False
16,2,1547.3445024999965,star,"(-480.0, 270.0)",0,1256.858300010208,966.8975000095088,True,False
16,2,1547.3594658999937,star,"(-480.0, 270.0)",0,1271.821700007422,981.8609000067227,True,False
16,2,1547.3835334999894,star,"(-480.0, 270.0)",0,1295.8893000031821,1005.9285000024829,True,False
16,2,1547.3980116999883,star,"(-480.0, 270.0)",0,1310.3675000020303,1020.406700001331,True,False
16,2,1547.4139274999907,star,"(-480.0, 270.0)",0,1326.2833000044338,1036.3225000037346,True,False
16,2,1547.4287773999968,star,"(-480.0, 270.0)",0,1341.1332000105176,1051.1724000098184,True,False
16,2,1547.445106500003,star,"(-480.0, 270.0)",0,1357.4623000167776,1067.5015000160784,True,False
16,2,1547.46098969999,star,"(-480.0, 270.0)",0,1373.3455000037793,1083.38470000308,True,False
16,2,1547.4770002999867,star,"(-480.0, 270.0)",0,1389.356100000441,1099.3952999997418,True,False
16,2,1547.4939849999791,star,"(-480.0, 270.0)",0,1406.340799992904,1116.3799999922048,True,False
16,2,1547.5111526999972,star,"(-480.0, 270.0)",0,1423.5085000109393,1133.54770001024,True,False
16,2,1547.5262103999848,star,"(-480.0, 270.0)",0,1438.5661999986041,1148.605399997905,True,False
16,2,1547.5439170000027,star,"(-480.0, 270.0)",0,1456.2728000164498,1166.3120000157505,True,False
16,2,1547.5607230000023,star,"(-480.0, 270.0)",0,1473.0788000160828,1183.1180000153836,True,False
16,2,1547.5783876999922,star,"(-480.0, 270.0)",0,1490.7435000059195,1200.7827000052202,True,False
16,2,1547.5933528000023,star,"(-480.0, 270.0)",0,1505.708600016078,1215.7478000153787,True,False
16,2,1547.6121342999977,star,"(-480.0, 270.0)",0,1524.4901000114623,1234.529300010763,True,False
16,2,1547.6258701999905,star,"(-480.0, 270.0)",0,1538.2260000042152,1248.265200003516,True,False
16,2,1547.6446622000076,star,"(-480.0, 270.0)",0,1557.018000021344,1267.0572000206448,True,False
16,2,1547.6619004999811,star,"(-480.0, 270.0)",0,1574.256299994886,1284.2954999941867,True,False
16,2,1547.6778564999986,star,"(-480.0, 270.0)",0,1590.2123000123538,1300.2515000116546,True,False
16,2,1547.6931562999962,star,"(-480.0, 270.0)",0,1605.5121000099462,1315.551300009247,True,False
16,2,1547.7112464999955,star,"(-480.0, 270.0)",0,1623.6023000092246,1333.6415000085253,True,False
16,2,1547.7277849999955,star,"(-480.0, 270.0)",0,1640.1408000092488,1350.1800000085495,True,False
16,2,1547.7445085000072,star,"(-480.0, 270.0)",0,1656.8643000209704,1366.9035000202712,True,False
16,2,1547.760887099983,star,"(-480.0, 270.0)",0,1673.2428999966942,1383.282099995995,True,False
16,2,1547.7776900999888,star,"(-480.0, 270.0)",0,1690.0459000025876,1400.0851000018883,True,False
16,2,1547.7940240000025,star,"(-480.0, 270.0)",0,1706.3798000162933,1416.419000015594,True,False
16,2,1547.8108698999858,star,"(-480.0, 270.0)",0,1723.2256999996025,1433.2648999989033,True,False
16,2,1547.8266277999792,star,"(-480.0, 270.0)",0,1738.9835999929346,1449.0227999922354,True,False
16,2,1547.8447057000012,star,"(-480.0, 270.0)",0,1757.06150001497,1467.1007000142708,True,False
16,2,1547.8594070999825,star,"(-480.0, 270.0)",0,1771.7628999962471,1481.802099995548,True,False
16,2,1547.8763474999869,star,"(-480.0, 270.0)",0,1788.703300000634,1498.7424999999348,True,False
16,2,1547.8946624999808,star,"(-480.0, 270.0)",0,1807.0182999945246,1517.0574999938253,True,False
16,2,1547.9109415999847,star,"(-480.0, 270.0)",0,1823.2973999984097,1533.3365999977104,True,False
16,2,1547.9272477999912,star,"(-480.0, 270.0)",0,1839.6036000049207,1549.6428000042215,True,False
16,2,1547.9440703,star,"(-480.0, 270.0)",0,1856.4261000137776,1566.4653000130784,True,False
16,2,1547.960786199983,star,"(-480.0, 270.0)",0,1873.141999996733,1583.1811999960337,True,False
16,2,1547.9776096999994,star,"(-480.0, 270.0)",0,1889.9655000132043,1600.004700012505,True,False
16,2,1547.9934749999957,star,"(-480.0, 270.0)",0,1905.8308000094257,1615.8700000087265,True,False
16,2,1548.0107788000023,star,"(-480.0, 270.0)",0,1923.1346000160556,1633.1738000153564,True,False
16,2,1548.0125973999966,cross,"(480.0, -270.0)",266.34000000194646,1924.95320001035,1634.9924000096507,True,False
16,2,1548.0294089999807,cross,"(480.0, -270.0)",0,1941.7647999944165,1651.8039999937173,True,False
16,2,1548.044646800001,cross,"(480.0, -270.0)",0,1957.0026000146754,1667.0418000139762,True,False
16,2,1548.061732400005,cross,"(480.0, -270.0)",0,1974.0882000187412,1684.127400018042,True,False
16,2,1548.0790441999852,cross,"(480.0, -270.0)",0,1991.3999999989755,1701.4391999982763,True,False
16,2,1548.0944890999817,cross,"(480.0, -270.0)",0,2006.8448999954853,1716.884099994786,True,False
16,2,1548.1113364000048,cross,"(480.0, -270.0)",0,2023.6922000185587,1733.7314000178594,True,False
16,2,1548.127777799993,cross,"(480.0, -270.0)",0,2040.1336000068113,1750.172800006112,True,False
16,2,1548.1450170000026,cross,"(480.0, -270.0)",0,2057.37280001631,1767.4120000156108,True,False
16,2,1548.8446267999825,cross,"(480.0, -270.0)",250.0008999777492,2756.982599996263,2467.021799995564,False,True
16,3,1549.8115037999814,cross,"(480.0, -270.0)",252.13149999035522,3723.859599995194,966.8769999989308,True,False
16,3,1549.8292828999984,cross,"(480.0, -270.0)",0,3741.6387000121176,984.6561000158545,True,False
16,3,1549.8450696000073,cross,"(480.0, -270.0)",0,3757.4254000210203,1000.4428000247572,True,False
16,3,1549.8611235999851,cross,"(480.0, -270.0)",0,3773.479399998905,1016.496800002642,True,False
16,3,1549.8781151000003,cross,"(480.0, -270.0)",0,3790.470900014043,1033.4883000177797,True,False
16,3,1549.8934913999983,cross,"(480.0, -270.0)",0,3805.8472000120673,1048.8646000158042,True,False
16,3,1549.9114453999791,cross,"(480.0, -270.0)",0,3823.801199992886,1066.8185999966227,True,False
16,3,1549.92591369999,cross,"(480.0, -270.0)",0,3838.269500003662,1081.2869000073988,True,False
16,3,1549.942610500002,cross,"(480.0, -270.0)",0,3854.9663000158034,1097.9837000195403,True,False
16,3,1549.959790599998,cross,"(480.0, -270.0)",0,3872.146400011843,1115.16380001558,True,False
16,3,1549.9764353999926,cross,"(480.0, -270.0)",0,3888.7912000063807,1131.8086000101175,True,False
16,3,1549.993209999986,cross,"(480.0, -270.0)",0,3905.5657999997493,1148.5832000034861,True,False
16,3,1550.0093500000075,cross,"(480.0, -270.0)",0,3921.7058000213,1164.723200025037,True,False
16,3,1550.0259650999797,cross,"(480.0, -270.0)",0,3938.320899993414,1181.338299997151,True,False
16,3,1550.0432779999974,cross,"(480.0, -270.0)",0,3955.633800011128,1198.651200014865,True,False
16,3,1550.0592905999802,cross,"(480.0, -270.0)",0,3971.646399993915,1214.663799997652,True,False
16,3,1550.0765664000064,cross,"(480.0, -270.0)",0,3988.92220002017,1231.9396000239067,True,False
16,3,1550.0930004999973,cross,"(480.0, -270.0)",0,4005.3563000110444,1248.3737000147812,True,False
16,3,1550.10992789999,cross,"(480.0, -270.0)",0,4022.2837000037543,1265.3011000074912,True,False
16,3,1550.1257909999986,cross,"(480.0, -270.0)",0,4038.1468000123277,1281.1642000160646,True,False
16,3,1550.144428300002,cross,"(480.0, -270.0)",0,4056.7841000156477,1299.8015000193845,True,False
16,3,1550.161151599983,cross,"(480.0, -270.0)",0,4073.5073999967426,1316.5248000004794,True,False
16,3,1550.1778204999864,cross,"(480.0, -270.0)",0,4090.1763000001665,1333.1937000039034,True,False
16,3,1550.193099600001,cross,"(480.0, -270.0)",0,4105.455400014762,1348.4728000184987,True,False
16,3,1550.2092757000064,cross,"(480.0, -270.0)",0,4121.631500020158,1364.6489000238944,True,False
16,3,1550.2256962999818,cross,"(480.0, -270.0)",0,4138.052099995548,1381.0694999992847,True,False
16,3,1550.243721499981,cross,"(480.0, -270.0)",0,4156.077299994649,1399.0946999983862,True,False
16,3,1550.2602205000003,cross,"(480.0, -270.0)",0,4172.576300014043,1415.59370001778,True,False
16,3,1550.2764503000071,cross,"(480.0, -270.0)",0,4188.806100020884,1431.8235000246204,True,False
16,3,1550.2926734999928,cross,"(480.0, -270.0)",0,4205.029300006572,1448.046700010309,True,False
16,3,1550.3102914000046,cross,"(480.0, -270.0)",0,4222.6472000184,1465.6646000221372,True,False
16,3,1550.326121399994,cross,"(480.0, -270.0)",0,4238.477200007765,1481.4946000115015,True,False
16,3,1550.3432422000042,cross,"(480.0, -270.0)",0,4255.598000017926,1498.615400021663,True,False
16,3,1550.359534099989,cross,"(480.0, -270.0)",0,4271.889900002861,1514.9073000065982,True,False
16,3,1550.3771288999997,cross,"(480.0, -270.0)",0,4289.484700013418,1532.5021000171546,True,False
16,3,1550.3928984999948,cross,"(480.0, -270.0)",0,4305.254300008528,1548.2717000122648,True,False
16,3,1550.4151087999926,cross,"(480.0, -270.0)",0,4327.464600006351,1570.482000010088,True,False
16,3,1550.4317095000006,cross,"(480.0, -270.0)",0,4344.065300014336,1587.0827000180725,True,False
16,3,1550.4600393,cross,"(480.0, -270.0)",0,4372.395100013819,1615.4125000175554,True,False
16,3,1550.4784232999955,cross,"(480.0, -270.0)",0,4390.77910000924,1633.796500012977,True,False
16,3,1550.4930026000075,cross,"(480.0, -270.0)",0,4405.358400021214,1648.3758000249509,True,False
16,3,1550.5110448999912,cross,"(480.0, -270.0)",0,4423.400700005004,1666.418100008741,True,False
16,3,1550.5262125000008,cross,"(480.0, -270.0)",0,4438.568300014595,1681.5857000183314,True,False
16,3,1550.544282399991,cross,"(480.0, -270.0)",0,4456.638200004818,1699.6556000085548,True,False
16,3,1550.5599789999833,cross,"(480.0, -270.0)",0,4472.334799997043,1715.3522000007797,True,False
16,3,1550.5762182000035,cross,"(480.0, -270.0)",0,4488.574000017252,1731.5914000209887,True,False
16,3,1550.5936403999804,cross,"(480.0, -270.0)",0,4505.996199994115,1749.013599997852,True,False
16,3,1550.6105104000017,cross,"(480.0, -270.0)",0,4522.8662000154145,1765.8836000191513,True,False
16,3,1550.627200899995,cross,"(480.0, -270.0)",0,4539.5567000086885,1782.5741000124253,True,False
16,3,1550.6435104999982,cross,"(480.0, -270.0)",0,4555.866300011985,1798.8837000157218,True,False
16,3,1551.575980099995,star,"(-480.0, 270.0)",250.35590000334196,5488.335900008678,2731.3533000124153,False,True
18,1,1577.3997883999837,star,"(-480.0, 270.0)",267.0118999958504,2997.0963999803644,2997.0963999803644,False,True
18,2,1577.6667698999809,star,"(-480.0, 270.0)",263.3748999796808,3264.077899977565,266.98149999720044,True,False
18,2,1577.686043900001,star,"(-480.0, 270.0)",0,3283.351899997797,286.2555000174325,True,False
18,2,1577.7002328999806,star,"(-480.0, 270.0)",0,3297.540899977321,300.44449999695644,True,False
18,2,1577.7165518999973,star,"(-480.0, 270.0)",0,3313.859899993986,316.7635000136215,True,False
18,2,1577.7338326000026,star,"(-480.0, 270.0)",0,3331.140599999344,334.0442000189796,True,False
18,2,1577.7481236000021,star,"(-480.0, 270.0)",0,3345.4315999988467,348.3352000184823,True,False
18,2,1577.7665801999974,star,"(-480.0, 270.0)",0,3363.8881999941077,366.79180001374334,True,False
18,2,1577.7822295000078,star,"(-480.0, 270.0)",0,3379.537500004517,382.44110002415255,True,False
18,2,1577.7995429000002,star,"(-480.0, 270.0)",0,3396.8508999969345,399.7545000165701,True,False
18,2,1577.8161923000007,star,"(-480.0, 270.0)",0,3413.500299997395,416.40390001703054,True,False
18,2,1577.833181599999,star,"(-480.0, 270.0)",0,3430.4895999957807,433.39320001541637,True,False
18,2,1577.8486851000052,star,"(-480.0, 270.0)",0,3445.9931000019424,448.896700021578,True,False
18,2,1577.8662899000046,star,"(-480.0, 270.0)",0,3463.597900001332,466.5015000209678,True,False
18,2,1577.8824913999997,star,"(-480.0, 270.0)",0,3479.799399996409,482.7030000160448,True,False
18,2,1577.8998812999926,star,"(-480.0, 270.0)",0,3497.189299989259,500.0929000088945,True,False
18,2,1577.9162092999904,star,"(-480.0, 270.0)",0,3513.517299987143,516.4209000067785,True,False
18,2,1577.9330613999919,star,"(-480.0, 270.0)",0,3530.369399988558,533.2730000081938,True,False
18,2,1577.949266999989,star,"(-480.0, 270.0)",0,3546.5749999857508,549.4786000053864,True,False
18,2,1577.9665453000052,star,"(-480.0, 270.0)",0,3563.853300001938,566.7569000215735,True,False
18,2,1577.9827333999856,star,"(-480.0, 270.0)",0,3580.041399982292,582.9450000019278,True,False
18,2,1578.0001200999832,star,"(-480.0, 270.0)",0,3597.4280999798793,600.331699999515,True,False
18,2,1578.016600700008,star,"(-480.0, 270.0)",0,3613.9087000046857,616.8123000243213,True,False
18,2,1578.0336906999873,star,"(-480.0, 270.0)",0,3630.9986999840476,633.9023000036832,True,False
18,2,1578.0490532999975,star,"(-480.0, 270.0)",0,3646.361299994169,649.2649000138044,True,False
18,2,1578.0666220999847,star,"(-480.0, 270.0)",0,3663.9300999813713,666.833700001007,True,False
18,2,1578.0822309000068,star,"(-480.0, 270.0)",0,3679.5389000035357,682.4425000231713,True,False
18,2,1578.0993299999973,star,"(-480.0, 270.0)",0,3696.637999993982,699.5416000136174,True,False
18,2,1578.1155615999887,star,"(-480.0, 270.0)",0,3712.8695999854244,715.7732000050601,True,False
18,2,1578.1331040000077,star,"(-480.0, 270.0)",0,3730.412000004435,733.3156000240706,True,False
18,2,1578.1491348999843,star,"(-480.0, 270.0)",0,3746.442899981048,749.3465000006836,True,False
18,2,1578.1661814999825,star,"(-480.0, 270.0)",0,3763.489499979187,766.3930999988224,True,False
18,2,1578.1818817000021,star,"(-480.0, 270.0)",0,3779.189699998824,782.0933000184596,True,False
18,2,1578.1994409000035,star,"(-480.0, 270.0)",0,3796.748900000239,799.6525000198744,True,False
18,2,1578.2162312,star,"(-480.0, 270.0)",0,3813.5391999967396,816.4428000163753,True,False
18,2,1578.2330700999883,star,"(-480.0, 270.0)",0,3830.378099984955,833.2817000045907,True,False
18,2,1578.2485884999915,star,"(-480.0, 270.0)",0,3845.8964999881573,848.8001000077929,True,False
18,2,1578.2663519000052,star,"(-480.0, 270.0)",0,3863.6599000019487,866.5635000215843,True,False
18,2,1578.2827584999905,star,"(-480.0, 270.0)",0,3880.0664999871515,882.9701000067871,True,False
18,2,1578.2993362999987,star,"(-480.0, 270.0)",0,3896.644299995387,899.5479000150226,True,False
18,2,1578.3160356000008,star,"(-480.0, 270.0)",0,3913.343599997461,916.2472000170965,True,False
18,2,1578.3330122999905,star,"(-480.0, 270.0)",0,3930.3202999872155,933.2239000068512,True,False
18,2,1578.3491069999873,star,"(-480.0, 270.0)",0,3946.414999983972,949.3186000036076,True,False
18,2,1578.3666500999825,star,"(-480.0, 270.0)",0,3963.958099979209,966.8616999988444,True,False
18,2,1578.3828100999817,star,"(-480.0, 270.0)",0,3980.1180999784265,983.0216999980621,True,False
18,2,1578.399093999993,star,"(-480.0, 270.0)",0,3996.4019999897573,999.305600009393,True,False
18,2,1578.4159577999962,star,"(-480.0, 270.0)",0,4013.2657999929506,1016.1694000125863,True,False
18,2,1578.4331052000052,star,"(-480.0, 270.0)",0,4030.413200001931,1033.3168000215665,True,False
18,2,1578.4500538999855,star,"(-480.0, 270.0)",0,4047.3618999822065,1050.2655000018422,True,False
18,2,1578.4663689000008,star,"(-480.0, 270.0)",0,4063.6768999975175,1066.580500017153,True,False
18,2,1578.4822012000077,star,"(-480.0, 270.0)",0,4079.509200004395,1082.4128000240307,True,False
18,2,1578.4991275999928,star,"(-480.0, 270.0)",0,4096.435599989491,1099.3392000091262,True,False
18,2,1578.5150687999849,star,"(-480.0, 270.0)",0,4112.3767999815755,1115.280400001211,True,False
18,2,1578.5322337999824,star,"(-480.0, 270.0)",0,4129.541799979052,1132.4453999986872,True,False
18,2,1578.5491142999963,star,"(-480.0, 270.0)",0,4146.422299992992,1149.3259000126272,True,False
18,2,1578.5662008000072,star,"(-480.0, 270.0)",0,4163.50880000391,1166.412400023546,True,False
18,2,1578.5825734999962,star,"(-480.0, 270.0)",0,4179.881499992916,1182.785100012552,True,False
18,2,1578.599646799994,star,"(-480.0, 270.0)",0,4196.954799990635,1199.858400010271,True,False
18,2,1578.6152940999891,star,"(-480.0, 270.0)",0,4212.602099985816,1215.5057000054512,True,False
18,2,1578.632138099987,star,"(-480.0, 270.0)",0,4229.446099983761,1232.3497000033967,True,False
18,2,1578.6483240999805,star,"(-480.0, 270.0)",0,4245.632099977229,1248.5356999968644,True,False
18,2,1578.6663676000026,star,"(-480.0, 270.0)",0,4263.67559999926,1266.5792000188958,True,False
18,2,1578.682337599981,star,"(-480.0, 270.0)",0,4279.645599977812,1282.5491999974474,True,False
18,2,1578.6989064999798,star,"(-480.0, 270.0)",0,4296.214499976486,1299.1180999961216,True,False
18,2,1578.71559789998,star,"(-480.0, 270.0)",0,4312.905899976613,1315.8094999962486,True,False
18,2,1578.7329042000056,star,"(-480.0, 270.0)",0,4330.212200002279,1333.1158000219148,True,False
18,2,1578.7483269999793,star,"(-480.0, 270.0)",0,4345.634999976028,1348.5385999956634,True,False
18,2,1578.7659939999867,star,"(-480.0, 270.0)",0,4363.301999983378,1366.2056000030134,True,False
18,2,1578.7827036999806,star,"(-480.0, 270.0)",0,4380.011699977331,1382.9152999969665,True,False
18,2,1578.8001090000034,star,"(-480.0, 270.0)",0,4397.417000000132,1400.3206000197679,True,False
18,2,1578.816307000001,star,"(-480.0, 270.0)",0,4413.614999997662,1416.518600017298,True,False
18,2,1578.8325704000017,star,"(-480.0, 270.0)",0,4429.878399998415,1432.782000018051,True,False
18,2,1578.8481608000002,star,"(-480.0, 270.0)",0,4445.468799996888,1448.372400016524,True,False
18,2,1578.8665388999798,star,"(-480.0, 270.0)",0,4463.846899976488,1466.7504999961238,True,False
18,2,1578.8818673999922,star,"(-480.0, 270.0)",0,4479.17539998889,1482.0790000085253,True,False
18,2,1578.8986282999977,star,"(-480.0, 270.0)",0,4495.936299994355,1498.8399000139907,True,False
18,2,1578.9151283999963,star,"(-480.0, 270.0)",0,4512.436399993021,1515.3400000126567,True,False
18,2,1578.9327853999857,star,"(-480.0, 270.0)",0,4530.093399982434,1532.9970000020694,True,False
18,2,1578.9483457999886,star,"(-480.0, 270.0)",0,4545.653799985303,1548.5574000049382,True,False
18,2,1578.9657955000002,star,"(-480.0, 270.0)",0,4563.1034999969415,1566.0071000165772,True,False
18,2,1578.982043099997,star,"(-480.0, 270.0)",0,4579.351099993801,1582.2547000134364,True,False
18,2,1578.9986459999927,star,"(-480.0, 270.0)",0,4595.953999989433,1598.8576000090688,True,False
18,2,1579.0159219999914,star,"(-480.0, 270.0)",0,4613.229999988107,1616.1336000077426,True,False
18,2,1579.0375643000007,star,"(-480.0, 270.0)",0,4634.872299997369,1637.7759000170045,True,False
18,2,1579.0531226999883,star,"(-480.0, 270.0)",0,4650.430699985009,1653.3343000046443,True,False
18,2,1579.0667192999972,star,"(-480.0, 270.0)",0,4664.027299993904,1666.93090001354,True,False
18,2,1579.081551499985,star,"(-480.0, 270.0)",0,4678.859499981627,1681.7631000012625,True,False
18,2,1579.0994500999805,star,"(-480.0, 270.0)",0,4696.75809997716,1699.6616999967955,True,False
18,2,1579.1156316999986,star,"(-480.0, 270.0)",0,4712.9396999953315,1715.843300014967,True,False
18,2,1579.1325933999906,star,"(-480.0, 270.0)",0,4729.901399987284,1732.8050000069197,True,False
18,2,1579.1481633000076,star,"(-480.0, 270.0)",0,4745.471300004283,1748.3749000239186,True,False
18,2,1579.1661482999916,star,"(-480.0, 270.0)",0,4763.45629998832,1766.3599000079557,True,False
18,2,1579.1680799000023,circle,"(-480.0, -270.0)",267.40219999919645,4765.387899999041,1768.2915000186767,True,False
18,2,1579.184309400007,circle,"(-480.0, -270.0)",0,4781.617400003597,1784.5210000232328,True,False
18,2,1580.7315485999861,cross,"(480.0, -270.0)",266.468799993163,6328.856599982828,3331.7602000024635,False,True
18,3,1584.813901799993,t,"(480.0, 270.0)",265.5670999956783,10411.209799989592,4082.3532000067644,False,True
18,4,1587.463319100003,star,"(-480.0, 270.0)",250.46760000986978,13060.627099999692,2649.4173000101,False,True
19,1,1593.1289717000036,cross,"(480.0, -270.0)",264.8763000033796,1795.6034000089858,1795.6034000089858,False,True
19,2,1593.3952822999854,cross,"(480.0, -270.0)",262.97079998767003,2061.913999990793,266.3105999818072,True,False
19,2,1593.4148206999816,cross,"(480.0, -270.0)",0,2081.452399987029,285.84899997804314,True,False
19,2,1593.4300485999847,cross,"(480.0, -270.0)",0,2096.680299990112,301.0768999811262,True,False
19,2,1593.445381700003,cross,"(480.0, -270.0)",0,2112.0134000084363,316.4099999994505,True,False
19,2,1593.4620180999918,cross,"(480.0, -270.0)",0,2128.64979999722,333.04639998823404,True,False
19,2,1593.4784266999923,cross,"(480.0, -270.0)",0,2145.0583999976516,349.4549999886658,True,False
19,2,1593.4948864000035,cross,"(480.0, -270.0)",0,2161.518100008834,365.9146999998484,True,False
19,2,1593.5118604000018,cross,"(480.0, -270.0)",0,2178.4921000071336,382.8886999981478,True,False
19,2,1593.5286690999928,cross,"(480.0, -270.0)",0,2195.300799998222,399.69739998923615,True,False
19,2,1593.5444484000036,cross,"(480.0, -270.0)",0,2211.080100008985,415.47669999999925,True,False
19,2,1593.5618534999958,cross,"(480.0, -270.0)",0,2228.4852000011597,432.8817999921739,True,False
19,2,1593.5781773999915,cross,"(480.0, -270.0)",0,2244.809099996928,449.20569998794235,True,False
19,2,1593.595709599991,cross,"(480.0, -270.0)",0,2262.3412999964785,466.7378999874927,True,False
19,2,1593.612945300003,cross,"(480.0, -270.0)",0,2279.5770000084303,483.97359999944456,True,False
19,2,1593.6299390000058,cross,"(480.0, -270.0)",0,2296.570700011216,500.96730000223033,True,False
19,2,1593.64483189999,cross,"(480.0, -270.0)",0,2311.463599995477,515.8601999864914,True,False
19,2,1593.6619095999922,cross,"(480.0, -270.0)",0,2328.541299997596,532.9378999886103,True,False
19,2,1593.6782233999984,cross,"(480.0, -270.0)",0,2344.8551000037696,549.2516999947838,True,False
19,2,1593.69450089999,cross,"(480.0, -270.0)",0,2361.1325999954715,565.5291999864858,True,False
19,2,1593.7114571999991,cross,"(480.0, -270.0)",0,2378.0889000045136,582.4854999955278,True,False
19,2,1593.7132462000009,circle,"(-480.0, -270.0)",263.9258000126574,2379.8779000062495,584.2744999972638,True,False
19,2,1593.7321563999867,circle,"(-480.0, -270.0)",0,2398.788099992089,603.1846999831032,True,False
19,2,1593.745794699993,circle,"(-480.0, -270.0)",0,2412.426399998367,616.8229999893811,True,False
19,2,1593.7619007999892,circle,"(-480.0, -270.0)",0,2428.532499994617,632.9290999856312,True,False
19,2,1593.7782157000038,circle,"(-480.0, -270.0)",0,2444.8474000091664,649.2440000001807,True,False
19,2,1593.7948837000004,circle,"(-480.0, -270.0)",0,2461.5154000057373,665.9119999967515,True,False
19,2,1593.8111829999834,circle,"(-480.0, -270.0)",0,2477.814699988812,682.2112999798264,True,False
19,2,1593.827879999997,circle,"(-480.0, -270.0)",0,2494.5117000024766,698.9082999934908,True,False
19,2,1593.8459678000072,circle,"(-480.0, -270.0)",0,2512.599500012584,716.9961000035983,True,False
19,2,1593.863738199987,circle,"(-480.0, -270.0)",0,2530.3698999923654,734.7664999833796,True,False
19,2,1593.8782479999936,circle,"(-480.0, -270.0)",0,2544.879699999001,749.2762999900151,True,False
19,2,1593.8946703999827,circle,"(-480.0, -270.0)",0,2561.3020999880973,765.6986999791116,True,False
19,2,1593.911980499979,circle,"(-480.0, -270.0)",0,2578.612199984491,783.0087999755051,True,False
19,2,1593.9288926000008,circle,"(-480.0, -270.0)",0,2595.5243000062183,799.9208999972325,True,False
19,2,1593.9449542000075,circle,"(-480.0, -270.0)",0,2611.5859000128694,815.9825000038836,True,False
19,2,1593.9618827999802,circle,"(-480.0, -270.0)",0,2628.514499985613,832.9110999766272,True,False
19,2,1593.9780348000058,circle,"(-480.0, -270.0)",0,2644.666500011226,849.0631000022404,True,False
19,2,1593.9947466999874,circle,"(-480.0, -270.0)",0,2661.3783999928273,865.7749999838416,True,False
19,2,1594.0115901999816,circle,"(-480.0, -270.0)",0,2678.2218999869656,882.6184999779798,True,False
19,2,1594.028881300008,circle,"(-480.0, -270.0)",0,2695.5130000133067,899.909600004321,True,False
19,2,1594.0438888999925,circle,"(-480.0, -270.0)",0,2710.5205999978352,914.9171999888495,True,False
19,2,1594.0619201000081,circle,"(-480.0, -270.0)",0,2728.55180001352,932.948400004534,True,False
19,2,1594.0777364999813,circle,"(-480.0, -270.0)",0,2744.3681999866385,948.7647999776527,True,False
19,2,1594.0960290999792,circle,"(-480.0, -270.0)",0,2762.6607999845874,967.0573999756016,True,False
19,2,1594.1121051999799,circle,"(-480.0, -270.0)",0,2778.7368999852333,983.1334999762475,True,False
19,2,1594.1290915999853,circle,"(-480.0, -270.0)",0,2795.723299990641,1000.1198999816552,True,False
19,2,1594.1435227000038,circle,"(-480.0, -270.0)",0,2810.1544000091963,1014.5510000002105,True,False
19,2,1594.1620773999894,circle,"(-480.0, -270.0)",0,2828.7090999947395,1033.1056999857537,True,False
19,2,1594.1780151999847,circle,"(-480.0, -270.0)",0,2844.646899990039,1049.0434999810532,True,False
19,2,1594.1947239,circle,"(-480.0, -270.0)",0,2861.3556000054814,1065.7521999964956,True,False
19,2,1594.211684399983,circle,"(-480.0, -270.0)",0,2878.3160999882966,1082.7126999793109,True,False
19,2,1594.228585999983,circle,"(-480.0, -270.0)",0,2895.2176999882795,1099.6142999792937,True,False
19,2,1594.2445877999999,circle,"(-480.0, -270.0)",0,2911.219500005245,1115.6160999962594,True,False
19,2,1594.263504100003,circle,"(-480.0, -270.0)",0,2930.135800008429,1134.5323999994434,True,False
19,2,1594.277079099993,circle,"(-480.0, -270.0)",0,2943.710799998371,1148.1073999893852,True,False
19,2,1594.2955737999873,circle,"(-480.0, -270.0)",0,2962.205499992706,1166.60209998372,True,False
19,2,1594.3112510000065,circle,"(-480.0, -270.0)",0,2977.8827000118326,1182.2793000028469,True,False
19,2,1594.327702199982,circle,"(-480.0, -270.0)",0,2994.333899987396,1198.73049997841,True,False
19,2,1594.345707600005,circle,"(-480.0, -270.0)",0,3012.3393000103533,1216.7359000013676,True,False
19,2,1594.361653,circle,"(-480.0, -270.0)",0,3028.2847000053152,1232.6812999963295,True,False
19,2,1594.363675200002,star,"(-480.0, 270.0)",264.7706000134349,3030.3069000074174,1234.7034999984317,True,False
19,2,1594.3799843000015,star,"(-480.0, 270.0)",0,3046.6160000069067,1251.012599997921,True,False
19,2,1594.3952849000052,star,"(-480.0, 270.0)",0,3061.9166000105906,1266.3132000016049,True,False
19,2,1594.411523799994,star,"(-480.0, 270.0)",0,3078.1554999994114,1282.5520999904256,True,False
19,2,1594.427941700007,star,"(-480.0, 270.0)",0,3094.5734000124503,1298.9700000034645,True,False
19,2,1594.4442284999823,star,"(-480.0, 270.0)",0,3110.8601999876555,1315.2567999786697,True,False
19,2,1594.4616907000018,star,"(-480.0, 270.0)",0,3128.322400007164,1332.7189999981783,True,False
19,2,1594.4771238999965,star,"(-480.0, 270.0)",0,3143.755600001896,1348.15219999291,True,False
19,2,1594.4946873000008,star,"(-480.0, 270.0)",0,3161.3190000061877,1365.715599997202,True,False
19,2,1594.5116007000033,star,"(-480.0, 270.0)",0,3178.23240000871,1382.6289999997243,True,False
19,2,1594.5283094999904,star,"(-480.0, 270.0)",0,3194.94119999581,1399.3377999868244,True,False
19,2,1594.5449328999966,star,"(-480.0, 270.0)",0,3211.5646000020206,1415.9611999930348,True,False
19,2,1594.5622165999957,star,"(-480.0, 270.0)",0,3228.8483000011183,1433.2448999921326,True,False
19,2,1594.5770778000006,star,"(-480.0, 270.0)",0,3243.7095000059344,1448.1060999969486,True,False
19,2,1594.5962922000035,star,"(-480.0, 270.0)",0,3262.9239000089,1467.3204999999143,True,False
19,2,1594.6114658000006,star,"(-480.0, 270.0)",0,3278.09750000597,1482.494099996984,True,False
19,2,1594.628274399991,star,"(-480.0, 270.0)",0,3294.9060999962967,1499.302699987311,True,False
19,2,1594.6442378000065,star,"(-480.0, 270.0)",0,3310.869500011904,1515.2661000029184,True,False
19,2,1594.662214699987,star,"(-480.0, 270.0)",0,3328.8463999924716,1533.2429999834858,True,False
19,2,1594.6783434999816,star,"(-480.0, 270.0)",0,3344.9751999869477,1549.371799977962,True,False
19,2,1594.6948753999895,star,"(-480.0, 270.0)",0,3361.507099994924,1565.9036999859381,True,False
19,2,1594.7115700999857,star,"(-480.0, 270.0)",0,3378.201799991075,1582.5983999820892,True,False
19,2,1594.7287499999802,star,"(-480.0, 270.0)",0,3395.3816999855917,1599.778299976606,True,False
19,2,1594.7443391999986,star,"(-480.0, 270.0)",0,3410.970900004031,1615.3674999950454,True,False
19,2,1594.7626831999805,star,"(-480.0, 270.0)",0,3429.3148999859113,1633.7114999769256,True,False
19,2,1594.7771010999859,star,"(-480.0, 270.0)",0,3443.732799991267,1648.129399982281,True,False
19,2,1594.7949813999876,star,"(-480.0, 270.0)",0,3461.6130999929737,1666.009699983988,True,False
19,2,1594.8125538000022,star,"(-480.0, 270.0)",0,3479.1855000075884,1683.5820999986026,True,False
19,2,1594.828119999991,star,"(-480.0, 270.0)",0,3494.7516999964137,1699.148299987428,True,False
19,2,1594.845536399982,star,"(-480.0, 270.0)",0,3512.1680999873206,1716.5646999783348,True,False
19,2,1594.8613460999914,star,"(-480.0, 270.0)",0,3527.9777999967337,1732.374399987748,True,False
19,2,1594.8766212000046,star,"(-480.0, 270.0)",0,3543.252900009975,1747.649500000989,True,False
19,2,1594.894854699989,star,"(-480.0, 270.0)",0,3561.4863999944646,1765.8829999854788,True,False
20,1,1602.4609681000002,star,"(-480.0, 270.0)",265.5053000198677,265.5259000021033,265.5259000021033,False,True
20,2,1602.7263658999873,star,"(-480.0, 270.0)",262.1592000068631,530.9236999892164,265.3977999871131,True,False
20,2,1602.7443834999867,star,"(-480.0, 270.0)",0,548.9412999886554,283.4153999865521,True,False
20,2,1602.760961299995,star,"(-480.0, 270.0)",0,565.5190999968909,299.9931999947876,True,False
20,2,1602.7765353999857,star,"(-480.0, 270.0)",0,581.093199987663,315.56729998555966,True,False
20,2,1602.7928674999857,star,"(-480.0, 270.0)",0,597.4252999876626,331.8993999855593,True,False
20,2,1602.8089265000017,star,"(-480.0, 270.0)",0,613.4843000036199,347.95840000151657,True,False
20,2,1602.8267458000046,star,"(-480.0, 270.0)",0,631.303600006504,365.7777000044007,True,False
20,2,1602.8423402000044,star,"(-480.0, 270.0)",0,646.8980000063311,381.37210000422783,True,False
20,2,1602.8598365999933,star,"(-480.0, 270.0)",0,664.3943999952171,398.8684999931138,True,False
20,2,1602.8766116999905,star,"(-480.0, 270.0)",0,681.169499992393,415.64359999028966,True,False
20,2,1602.8963815000025,star,"(-480.0, 270.0)",0,700.9393000043929,435.41340000228956,True,False
20,2,1602.9117002999992,star,"(-480.0, 270.0)",0,716.2581000011414,450.73219999903813,True,False
20,2,1602.926620299986,star,"(-480.0, 270.0)",0,731.1780999880284,465.6521999859251,True,False
20,2,1602.9421573999862,star,"(-480.0, 270.0)",0,746.7151999881025,481.18929998599924,True,False
20,2,1602.9594623000012,star,"(-480.0, 270.0)",0,764.0201000031084,498.4942000010051,True,False
20,2,1602.975859099999,star,"(-480.0, 270.0)",0,780.4169000010006,514.8909999988973,True,False
20,2,1602.9926915999968,star,"(-480.0, 270.0)",0,797.2493999986909,531.7234999965876,True,False
20,2,1603.0099836000009,star,"(-480.0, 270.0)",0,814.5414000027813,549.015500000678,True,False
20,2,1603.027279700007,star,"(-480.0, 270.0)",0,831.8375000089873,566.311600006884,True,False
20,2,1603.0429917000001,star,"(-480.0, 270.0)",0,847.5495000020601,582.0235999999568,True,False
20,2,1603.061291399994,star,"(-480.0, 270.0)",0,865.8491999958642,600.3232999937609,True,False
20,2,1603.07576409998,star,"(-480.0, 270.0)",0,880.3218999819364,614.7959999798331,True,False
20,2,1603.0926135999907,star,"(-480.0, 270.0)",0,897.1713999926578,631.6454999905545,True,False
20,2,1603.1088021000032,star,"(-480.0, 270.0)",0,913.3599000051618,647.8340000030585,True,False
20,2,1603.125538799999,star,"(-480.0, 270.0)",0,930.0966000009794,664.5706999988761,True,False
20,2,1603.1406876999827,star,"(-480.0, 270.0)",0,945.2454999845941,679.7195999824908,True,False
20,2,1603.1597715999815,star,"(-480.0, 270.0)",0,964.3293999833986,698.8034999812953,True,False
20,2,1603.1751681999885,star,"(-480.0, 270.0)",0,979.7259999904782,714.2000999883749,True,False
20,2,1603.191817599989,star,"(-480.0, 270.0)",0,996.3753999909386,730.8494999888353,True,False
20,2,1603.2087486999808,star,"(-480.0, 270.0)",0,1013.3064999827184,747.7805999806151,True,False
20,2,1603.225888099987,star,"(-480.0, 270.0)",0,1030.4458999889903,764.919999986887,True,False
20,2,1603.2410097999964,star,"(-480.0, 270.0)",0,1045.5675999983214,780.0416999962181,True,False
20,2,1603.2601937,star,"(-480.0, 270.0)",0,1064.7515000018757,799.2255999997724,True,False
20,2,1603.2761409999803,star,"(-480.0, 270.0)",0,1080.6987999822013,815.172899980098,True,False
20,2,1603.2932598000043,star,"(-480.0, 270.0)",0,1097.8176000062376,832.2917000041343,True,False
20,2,1603.3083115000045,star,"(-480.0, 270.0)",0,1112.8693000064231,847.3434000043198,True,False
20,2,1603.3245912999846,star,"(-480.0, 270.0)",0,1129.1490999865346,863.6231999844313,True,False
20,2,1603.3413402999868,star,"(-480.0, 270.0)",0,1145.898099988699,880.3721999865957,True,False
20,2,1603.3588762999862,star,"(-480.0, 270.0)",0,1163.4340999880806,897.9081999859773,True,False
20,2,1603.3740430999896,star,"(-480.0, 270.0)",0,1178.6008999915794,913.074999989476,True,False
20,2,1603.3915364999848,star,"(-480.0, 270.0)",0,1196.0942999867257,930.5683999846224,True,False
20,2,1603.4086191999959,star,"(-480.0, 270.0)",0,1213.1769999978133,947.65109999571,True,False
20,2,1603.4261347999854,star,"(-480.0, 270.0)",0,1230.6925999873783,965.166699985275,True,False
20,2,1603.4418832999945,star,"(-480.0, 270.0)",0,1246.4410999964457,980.9151999943424,True,False
20,2,1603.4587857000006,star,"(-480.0, 270.0)",0,1263.3435000025202,997.8176000004169,True,False
20,2,1603.4756596999941,star,"(-480.0, 270.0)",0,1280.2174999960698,1014.6915999939665,True,False
20,2,1603.4916985000018,star,"(-480.0, 270.0)",0,1296.2563000037335,1030.7304000016302,True,False
20,2,1603.507288599998,star,"(-480.0, 270.0)",0,1311.8463999999221,1046.3204999978188,True,False
20,2,1603.5265590999916,star,"(-480.0, 270.0)",0,1331.1168999935035,1065.5909999914002,True,False
20,2,1603.5400832000014,star,"(-480.0, 270.0)",0,1344.641000003321,1079.1151000012178,True,False
20,2,1603.559825000004,star,"(-480.0, 270.0)",0,1364.382800005842,1098.8569000037387,True,False
20,2,1603.5746220999863,star,"(-480.0, 270.0)",0,1379.1798999882303,1113.653999986127,True,False
20,2,1603.5922980000032,star,"(-480.0, 270.0)",0,1396.8558000051416,1131.3299000030383,True,False
20,2,1603.6085380000004,star,"(-480.0, 270.0)",0,1413.0958000023384,1147.569900000235,True,False
20,2,1603.624809300003,star,"(-480.0, 270.0)",0,1429.367100005038,1163.8412000029348,True,False
20,2,1603.6418727999844,star,"(-480.0, 270.0)",0,1446.4305999863427,1180.9046999842394,True,False
20,2,1603.6589542999864,star,"(-480.0, 270.0)",0,1463.512099988293,1197.9861999861896,True,False
20,2,1603.6756084999943,star,"(-480.0, 270.0)",0,1480.166299996199,1214.6403999940958,True,False
20,2,1603.691650599998,star,"(-480.0, 270.0)",0,1496.2083999998868,1230.6824999977835,True,False
20,2,1603.708940899989,star,"(-480.0, 270.0)",0,1513.4986999910325,1247.9727999889292,True,False
20,2,1603.7266570999927,star,"(-480.0, 270.0)",0,1531.2148999946658,1265.6889999925625,True,False
20,2,1603.7426109999942,star,"(-480.0, 270.0)",0,1547.1687999961432,1281.64289999404,True,False
20,2,1603.7625759000075,star,"(-480.0, 270.0)",0,1567.1337000094354,1301.6078000073321,True,False
20,2,1603.78949309999,star,"(-480.0, 270.0)",0,1594.0508999919984,1328.5249999898952,True,False
20,2,1603.8182331999997,star,"(-480.0, 270.0)",0,1622.7910000015981,1357.2650999994949,True,False
20,2,1603.8433396999899,star,"(-480.0, 270.0)",0,1647.8974999918137,1382.3715999897104,True,False
20,2,1603.861739199987,star,"(-480.0, 270.0)",0,1666.2969999888446,1400.7710999867413,True,False
20,2,1603.8771512999956,star,"(-480.0, 270.0)",0,1681.7090999975335,1416.1831999954302,True,False
20,2,1603.8920987999882,star,"(-480.0, 270.0)",0,1696.6565999900922,1431.130699987989,True,False
20,2,1603.8940846000041,cross,"(480.0, -270.0)",250.32150000333786,1698.6424000060651,1433.1165000039618,True,False
20,2,1603.9118502000056,cross,"(480.0, -270.0)",0,1716.4080000075046,1450.8821000054013,True,False
20,2,1603.9254686000058,cross,"(480.0, -270.0)",0,1730.0264000077732,1464.50050000567,True,False
20,2,1603.9414033000066,cross,"(480.0, -270.0)",0,1745.9611000085715,1480.4352000064682,True,False
20,2,1603.9579733999853,cross,"(480.0, -270.0)",0,1762.5311999872793,1497.005299985176,True,False
20,2,1603.9748314000026,cross,"(480.0, -270.0)",0,1779.3892000045162,1513.8633000024129,True,False
20,2,1603.9915223999997,cross,"(480.0, -270.0)",0,1796.0802000015974,1530.554299999494,True,False
20,2,1604.0083335999807,cross,"(480.0, -270.0)",0,1812.8913999826182,1547.3654999805149,True,False
20,2,1604.024520899984,cross,"(480.0, -270.0)",0,1829.0786999859847,1563.5527999838814,True,False
20,2,1604.0425243999925,cross,"(480.0, -270.0)",0,1847.0821999944746,1581.5562999923714,True,False
20,2,1604.058934999979,cross,"(480.0, -270.0)",0,1863.4927999810316,1597.9668999789283,True,False
20,2,1604.0757381999865,cross,"(480.0, -270.0)",0,1880.2959999884479,1614.7700999863446,True,False
20,2,1604.0919947999937,cross,"(480.0, -270.0)",0,1896.5525999956299,1631.0266999935266,True,False
20,2,1604.1085263999994,cross,"(480.0, -270.0)",0,1913.0842000013217,1647.5582999992184,True,False
20,2,1604.124369199999,cross,"(480.0, -270.0)",0,1928.92700000084,1663.4010999987368,True,False
20,2,1604.140242399997,cross,"(480.0, -270.0)",0,1944.8001999990083,1679.274299996905,True,False
20,2,1604.158905999997,cross,"(480.0, -270.0)",0,1963.4637999988627,1697.9378999967594,True,False
20,2,1604.1746565999929,cross,"(480.0, -270.0)",0,1979.2143999948166,1713.6884999927133,True,False
20,2,1604.1918676999921,cross,"(480.0, -270.0)",0,1996.425499994075,1730.8995999919716,True,False
20,2,1604.2099570999853,cross,"(480.0, -270.0)",0,2014.5148999872617,1748.9889999851584,True,False
20,2,1604.2312364999962,cross,"(480.0, -270.0)",0,2035.7942999980878,1770.2683999959845,True,False
20,2,1604.243794799986,cross,"(480.0, -270.0)",0,2048.352599987993,1782.8266999858897,True,False
20,2,1605.3907497999899,cross,"(480.0, -270.0)",267.06720000947826,3195.307599991793,2929.7816999896895,False,True
20,3,1606.4090394999948,cross,"(480.0, -270.0)",264.56350000808015,4213.5972999967635,1018.2897000049707,True,False
20,3,1606.4290660999832,cross,"(480.0, -270.0)",0,4233.623899985105,1038.316299993312,True,False
20,3,1606.4427776999946,cross,"(480.0, -270.0)",0,4247.335499996552,1052.0279000047594,True,False
20,3,1606.4582717999874,cross,"(480.0, -270.0)",0,4262.829599989345,1067.5219999975525,True,False
20,3,1606.4741160999984,cross,"(480.0, -270.0)",0,4278.673900000285,1083.3663000084925,True,False
20,3,1606.4914995,cross,"(480.0, -270.0)",0,4296.0573000018485,1100.7497000100557,True,False
20,3,1606.5081501999812,cross,"(480.0, -270.0)",0,4312.707999983104,1117.4003999913111,True,False
20,3,1606.524999699992,cross,"(480.0, -270.0)",0,4329.557499993825,1134.2499000020325,True,False
20,3,1606.541690699989,cross,"(480.0, -270.0)",0,4346.248499990907,1150.9408999991138,True,False
20,3,1606.558791699994,cross,"(480.0, -270.0)",0,4363.34949999582,1168.0419000040274,True,False
20,3,1606.5752793999854,cross,"(480.0, -270.0)",0,4379.837199987378,1184.5295999955852,True,False
20,3,1606.5915468999883,cross,"(480.0, -270.0)",0,4396.104699990246,1200.7970999984536,True,False
20,3,1606.6083687999926,cross,"(480.0, -270.0)",0,4412.926599994535,1217.6190000027418,True,False
20,3,1606.6253081999894,cross,"(480.0, -270.0)",0,4429.865999991307,1234.5583999995142,True,False
20,3,1606.6400820999988,cross,"(480.0, -270.0)",0,4444.639900000766,1249.332300008973,True,False
20,3,1606.659246700001,cross,"(480.0, -270.0)",0,4463.80450000288,1268.4969000110868,True,False
20,3,1606.673522099998,cross,"(480.0, -270.0)",0,4478.079900000012,1282.7723000082187,True,False
20,3,1606.6903114999877,cross,"(480.0, -270.0)",0,4494.869299989659,1299.5616999978665,True,False
20,3,1606.7074714000046,cross,"(480.0, -270.0)",0,4512.029200006509,1316.7216000147164,True,False
20,3,1606.7254395000055,cross,"(480.0, -270.0)",0,4529.9973000073805,1334.6897000155877,True,False
20,3,1606.7407486999873,cross,"(480.0, -270.0)",0,4545.306499989238,1349.9988999974448,True,False
20,3,1606.758415599994,cross,"(480.0, -270.0)",0,4562.973399995826,1367.6658000040334,True,False
20,3,1606.7748530999816,cross,"(480.0, -270.0)",0,4579.410899983486,1384.1032999916933,True,False
20,3,1606.7914732999925,cross,"(480.0, -270.0)",0,4596.031099994434,1400.7235000026412,True,False
20,3,1606.8081065999868,cross,"(480.0, -270.0)",0,4612.6643999887165,1417.3567999969237,True,False
20,3,1606.8249951000034,cross,"(480.0, -270.0)",0,4629.552900005365,1434.245300013572,True,False
20,3,1606.8410266999854,cross,"(480.0, -270.0)",0,4645.584499987308,1450.2768999955151,True,False
20,3,1606.858299799991,cross,"(480.0, -270.0)",0,4662.8575999930035,1467.5500000012107,True,False
20,3,1606.8755229999952,cross,"(480.0, -270.0)",0,4680.080799997086,1484.773200005293,True,False
20,3,1606.8923887999845,cross,"(480.0, -270.0)",0,4696.946599986404,1501.6389999946114,True,False
20,3,1606.9067932000034,cross,"(480.0, -270.0)",0,4711.351000005379,1516.0434000135865,True,False
20,3,1606.926528299984,cross,"(480.0, -270.0)",0,4731.086099985987,1535.7784999941941,True,False
20,3,1606.9414381999813,cross,"(480.0, -270.0)",0,4745.995999983279,1550.6883999914862,True,False
20,3,1606.9590090999845,cross,"(480.0, -270.0)",0,4763.566899986472,1568.2592999946792,True,False
20,3,1606.9748210999824,cross,"(480.0, -270.0)",0,4779.378899984295,1584.0712999925017,True,False
20,3,1606.9917877999833,cross,"(480.0, -270.0)",0,4796.345599985216,1601.037999993423,True,False
20,3,1607.0083219999797,cross,"(480.0, -270.0)",0,4812.8797999816015,1617.5721999898087,True,False
20,3,1607.0250018000079,cross,"(480.0, -270.0)",0,4829.559600009816,1634.252000018023,True,False
20,3,1607.0415627000039,cross,"(480.0, -270.0)",0,4846.120500005782,1650.8129000139888,True,False
20,3,1607.0584042999835,cross,"(480.0, -270.0)",0,4862.962099985452,1667.6544999936596,True,False
20,3,1607.074092499999,cross,"(480.0, -270.0)",0,4878.650300001027,1683.3427000092342,True,False
20,3,1607.0913789999904,cross,"(480.0, -270.0)",0,4895.936799992342,1700.6292000005487,True,False
20,3,1607.1081873000076,cross,"(480.0, -270.0)",0,4912.745100009488,1717.4375000176951,True,False
20,3,1607.1249972999794,cross,"(480.0, -270.0)",0,4929.555099981371,1734.2474999895785,True,False
20,3,1607.1397685999982,cross,"(480.0, -270.0)",0,4944.326400000136,1749.0188000083435,True,False
20,3,1607.1595535999804,cross,"(480.0, -270.0)",0,4964.111399982357,1768.8037999905646,True,False
21,1,1622.5038517999928,star,"(-480.0, 270.0)",251.63189999875613,1350.146599987056,1350.146599987056,False,True
21,2,1622.7746041000064,star,"(-480.0, 270.0)",261.83170001604594,1620.8989000006113,270.7523000135552,True,False
21,2,1622.7947514999832,star,"(-480.0, 270.0)",0,1641.0462999774609,290.89969999040477,True,False
21,2,1622.8104462999909,star,"(-480.0, 270.0)",0,1656.7410999850836,306.59449999802746,True,False
21,2,1622.828732199996,star,"(-480.0, 270.0)",0,1675.026999990223,324.88040000316687,True,False
21,2,1622.8554554999864,star,"(-480.0, 270.0)",0,1701.750299980631,351.603699993575,True,False
21,2,1622.8733860999928,star,"(-480.0, 270.0)",0,1719.6808999869972,369.53429999994114,True,False
21,2,1622.8930651999835,star,"(-480.0, 270.0)",0,1739.3599999777507,389.2133999906946,True,False
21,2,1622.9110617999977,star,"(-480.0, 270.0)",0,1757.3565999919083,407.2100000048522,True,False
21,2,1622.9281980999804,star,"(-480.0, 270.0)",0,1774.4928999745753,424.34629998751916,True,False
21,2,1622.9595794999914,star,"(-480.0, 270.0)",0,1805.8742999855895,455.72769999853335,True,False
