trial_num,selection_num,timestamp,shape,position,fixation_duration_ms,rt_from_trial_start_ms,rt_from_previous_selection_ms,queued_selection,was_executed
13,1,172.29312780000328,circle,"(-480.0, -270.0)",266.2294000037946,3861.4080999977887,3861.4080999977887,False,True
13,2,172.56045810000796,circle,"(-480.0, -270.0)",263.2338000112213,4128.738400002476,267.33030000468716,True,False
13,2,172.58916620000673,circle,"(-480.0, -270.0)",0,4157.446500001242,296.0384000034537,True,False
13,2,172.60175709999749,circle,"(-480.0, -270.0)",0,4170.0373999919975,308.62929999420885,True,False
13,2,172.62673679999716,circle,"(-480.0, -270.0)",0,4195.017099991674,333.60899999388494,True,False
13,2,172.64314719999675,circle,"(-480.0, -270.0)",0,4211.4274999912595,350.01939999347087,True,False
13,2,172.65890409999702,circle,"(-480.0, -270.0)",0,4227.184399991529,365.7762999937404,True,False
13,2,172.67516030000115,circle,"(-480.0, -270.0)",0,4243.440599995665,382.0324999978766,True,False
13,2,172.69350540000596,circle,"(-480.0, -270.0)",0,4261.785700000473,400.37760000268463,True,False
13,2,172.70982760000334,circle,"(-480.0, -270.0)",0,4278.107899997849,416.69980000006035,True,False
13,2,172.7270595000009,circle,"(-480.0, -270.0)",0,4295.339799995418,433.93169999762904,True,False
13,2,172.7435747999989,circle,"(-480.0, -270.0)",0,4311.855099993409,450.44699999562,True,False
13,2,172.7599743000028,circle,"(-480.0, -270.0)",0,4328.254599997308,466.84649999951944,True,False
13,2,172.77732350000588,circle,"(-480.0, -270.0)",0,4345.60380000039,484.19570000260137,True,False
13,2,172.79374850000022,circle,"(-480.0, -270.0)",0,4362.028799994732,500.6206999969436,True,False
13,2,172.80965209999704,circle,"(-480.0, -270.0)",0,4377.9323999915505,516.5242999937618,True,False
13,2,172.82577569999557,circle,"(-480.0, -270.0)",0,4394.055999990087,532.6478999922983,True,False
13,2,172.84199909999734,circle,"(-480.0, -270.0)",0,4410.27939999185,548.8712999940617,True,False
13,2,172.86024009999528,circle,"(-480.0, -270.0)",0,4428.520399989793,567.1122999920044,True,False
13,2,172.875526799995,circle,"(-480.0, -270.0)",0,4443.807099989499,582.3989999917103,True,False
13,2,172.89353299999493,circle,"(-480.0, -270.0)",0,4461.813299989444,600.4051999916555,True,False
13,2,172.9076292999962,circle,"(-480.0, -270.0)",0,4475.9095999907,614.5014999929117,True,False
13,2,172.92608580000524,circle,"(-480.0, -270.0)",0,4494.366099999752,632.9580000019632,True,False
13,2,172.94021529999736,circle,"(-480.0, -270.0)",0,4508.495599991875,647.0874999940861,True,False
13,2,172.95946719999483,circle,"(-480.0, -270.0)",0,4527.747499989346,666.339399991557,True,False
13,2,172.97574100000202,circle,"(-480.0, -270.0)",0,4544.02129999653,682.613199998741,True,False
13,2,172.99235109999427,circle,"(-480.0, -270.0)",0,4560.631399988779,699.2232999909902,True,False
13,2,173.00835810000717,circle,"(-480.0, -270.0)",0,4576.638400001684,715.2303000038955,True,False
13,2,173.02717460000713,circle,"(-480.0, -270.0)",0,4595.454900001641,734.0468000038527,True,False
13,2,173.0428893000062,circle,"(-480.0, -270.0)",0,4611.169600000721,749.7615000029327,True,False
13,2,173.06052519999503,circle,"(-480.0, -270.0)",0,4628.805499989539,767.3973999917507,True,False
13,2,173.0758150000038,circle,"(-480.0, -270.0)",0,4644.095299998298,782.6872000005096,True,False
13,2,173.09323779999977,circle,"(-480.0, -270.0)",0,4661.518099994282,800.1099999964936,True,False
13,2,173.1085097000032,circle,"(-480.0, -270.0)",0,4676.789999997709,815.3818999999203,True,False
13,2,173.12611549999565,circle,"(-480.0, -270.0)",0,4694.395799990161,832.9876999923727,True,False
13,2,173.14290150000306,circle,"(-480.0, -270.0)",0,4711.181799997576,849.7736999997869,True,False
13,2,173.16020290000597,circle,"(-480.0, -270.0)",0,4728.483200000483,867.075100002694,True,False
13,2,173.17535980000685,circle,"(-480.0, -270.0)",0,4743.6401000013575,882.2320000035688,True,False
13,2,173.19341130000248,circle,"(-480.0, -270.0)",0,4761.691599996993,900.2834999992047,True,False
13,2,173.21033549999993,circle,"(-480.0, -270.0)",0,4778.615799994441,917.2076999966521,True,False
13,2,173.22620600000664,circle,"(-480.0, -270.0)",0,4794.486300001154,933.078200003365,True,False
13,2,173.242934599999,circle,"(-480.0, -270.0)",0,4811.214899993502,949.8067999957129,True,False
13,2,173.26063639999484,circle,"(-480.0, -270.0)",0,4828.91669998935,967.5085999915609,True,False
13,2,173.27648780000163,circle,"(-480.0, -270.0)",0,4844.768099996145,983.3599999983562,True,False
13,2,173.2929504000058,circle,"(-480.0, -270.0)",0,4861.230700000306,999.822600002517,True,False
13,2,173.30960580000828,circle,"(-480.0, -270.0)",0,4877.886100002797,1016.4780000050087,True,False
13,2,173.32642070000293,circle,"(-480.0, -270.0)",0,4894.70099999744,1033.2928999996511,True,False
13,2,173.34598120000737,circle,"(-480.0, -270.0)",0,4914.261500001885,1052.8534000040963,True,False
13,2,173.36021519999485,circle,"(-480.0, -270.0)",0,4928.495499989367,1067.0873999915784,True,False
13,2,173.37554350000573,circle,"(-480.0, -270.0)",0,4943.823800000246,1082.415700002457,True,False
13,2,173.3933759000065,circle,"(-480.0, -270.0)",0,4961.656200001016,1100.2481000032276,True,False
13,2,173.4098884999985,circle,"(-480.0, -270.0)",0,4978.168799993,1116.7606999952113,True,False
13,2,173.42658420000225,circle,"(-480.0, -270.0)",0,4994.8644999967655,1133.4563999989768,True,False
13,2,173.44361440000648,circle,"(-480.0, -270.0)",0,5011.894700000994,1150.4866000032052,True,False
13,2,173.46031350000703,circle,"(-480.0, -270.0)",0,5028.593800001545,1167.1857000037562,True,False
13,2,173.47602740000002,circle,"(-480.0, -270.0)",0,5044.307699994533,1182.8995999967447,True,False
13,2,173.49390450000647,circle,"(-480.0, -270.0)",0,5062.184800000978,1200.776700003189,True,False
13,2,173.5098044000042,circle,"(-480.0, -270.0)",0,5078.084699998726,1216.6766000009375,True,False
13,2,173.5264470999973,circle,"(-480.0, -270.0)",0,5094.727399991825,1233.3192999940366,True,False
13,2,173.54411820000678,circle,"(-480.0, -270.0)",0,5112.398500001291,1250.9904000035021,True,False
13,2,173.5612315000035,circle,"(-480.0, -270.0)",0,5129.511799997999,1268.1037000002107,True,False
13,2,173.57732840000244,circle,"(-480.0, -270.0)",0,5145.608699996956,1284.200599999167,True,False
13,2,173.59428770000522,circle,"(-480.0, -270.0)",0,5162.567999999737,1301.1599000019487,True,False
13,2,173.60895399999572,circle,"(-480.0, -270.0)",0,5177.234299990232,1315.8261999924434,True,False
13,2,173.62601710000308,circle,"(-480.0, -270.0)",0,5194.297399997595,1332.889299999806,True,False
13,2,173.64264600000752,circle,"(-480.0, -270.0)",0,5210.926300002029,1349.5182000042405,True,False
13,2,173.65925609999977,circle,"(-480.0, -270.0)",0,5227.536399994278,1366.1282999964897,True,False
13,2,173.67551430000458,circle,"(-480.0, -270.0)",0,5243.794599999092,1382.386500001303,True,False
13,2,173.69323069999518,circle,"(-480.0, -270.0)",0,5261.510999989696,1400.1028999919072,True,False
13,2,173.70834280000417,circle,"(-480.0, -270.0)",0,5276.623099998687,1415.2150000008987,True,False
13,2,173.7261875999975,circle,"(-480.0, -270.0)",0,5294.467899992014,1433.0597999942256,True,False
13,2,173.7430147999985,circle,"(-480.0, -270.0)",0,5311.2950999930035,1449.8869999952149,True,False
13,2,173.76031379999768,circle,"(-480.0, -270.0)",0,5328.594099992188,1467.185999994399,True,False
13,2,173.77575319999596,circle,"(-480.0, -270.0)",0,5344.0334999904735,1482.6253999926848,True,False
13,2,173.79357799999707,circle,"(-480.0, -270.0)",0,5361.858299991582,1500.450199993793,True,False
13,2,173.80977500000154,circle,"(-480.0, -270.0)",0,5378.055299996049,1516.6471999982605,True,False
13,2,173.82626050000545,circle,"(-480.0, -270.0)",0,5394.540799999959,1533.1327000021702,True,False
13,2,173.84223429999838,circle,"(-480.0, -270.0)",0,5410.514599992894,1549.106499995105,True,False
13,2,173.86058530000446,circle,"(-480.0, -270.0)",0,5428.865599998971,1567.4575000011828,True,False
13,2,173.8776429999998,circle,"(-480.0, -270.0)",0,5445.92329999432,1584.515199996531,True,False
13,2,173.8963628000056,circle,"(-480.0, -270.0)",0,5464.643100000103,1603.2350000023143,True,False
13,2,173.9256630000018,circle,"(-480.0, -270.0)",0,5493.943299996317,1632.5351999985287,True,False
13,2,173.9421663999965,circle,"(-480.0, -270.0)",0,5510.446699991007,1649.0385999932187,True,False
13,2,173.95917260000715,circle,"(-480.0, -270.0)",0,5527.452900001663,1666.0448000038741,True,False
13,2,173.97564469999634,circle,"(-480.0, -270.0)",0,5543.92499999085,1682.516899993061,True,False
13,2,173.99331520000123,circle,"(-480.0, -270.0)",0,5561.595499995747,1700.187399997958,True,False
13,2,174.00941559999774,circle,"(-480.0, -270.0)",0,5577.69589999225,1716.2877999944612,True,False
13,2,174.02624570000626,circle,"(-480.0, -270.0)",0,5594.526000000769,1733.1179000029806,True,False
13,2,174.04232229999616,circle,"(-480.0, -270.0)",0,5610.602599990671,1749.194499992882,True,False
13,2,174.06358630000614,circle,"(-480.0, -270.0)",0,5631.866600000649,1770.45850000286,True,False
14,1,183.62194620000082,circle,"(-480.0, -270.0)",250.51860000530723,2261.3829000038095,2261.3829000038095,False,True
14,2,183.89011459999892,circle,"(-480.0, -270.0)",263.3778000017628,2529.5513000019128,268.16839999810327,True,False
14,2,183.91087920000427,circle,"(-480.0, -270.0)",0,2550.315900007263,288.93300000345334,True,False
14,2,183.92354350000096,circle,"(-480.0, -270.0)",0,2562.980200003949,301.5973000001395,True,False
14,2,183.94065950000368,circle,"(-480.0, -270.0)",0,2580.0962000066647,318.71330000285525,True,False
14,2,183.95902860000206,circle,"(-480.0, -270.0)",0,2598.4653000050457,337.08240000123624,True,False
14,2,183.9913024999987,circle,"(-480.0, -270.0)",0,2630.739200001699,369.35629999788944,True,False
14,2,184.00434179999866,circle,"(-480.0, -270.0)",0,2643.7785000016447,382.39559999783523,True,False
14,2,184.0278907000029,circle,"(-480.0, -270.0)",0,2667.327400005888,405.9445000020787,True,False
14,2,184.0435404000018,circle,"(-480.0, -270.0)",0,2682.9771000047913,421.5942000009818,True,False
14,2,184.05686219999916,circle,"(-480.0, -270.0)",0,2696.298900002148,434.9159999983385,True,False
14,2,184.07380199999898,circle,"(-480.0, -270.0)",0,2713.238700001966,451.8557999981567,True,False
14,2,184.08857290000014,circle,"(-480.0, -270.0)",0,2728.0096000031335,466.62669999932405,True,False
14,2,184.10600610000256,circle,"(-480.0, -270.0)",0,2745.4428000055486,484.05990000173915,True,False
14,2,184.12210219999542,circle,"(-480.0, -270.0)",0,2761.5388999984134,500.1559999946039,True,False
14,2,184.13983899999585,circle,"(-480.0, -270.0)",0,2779.275699998834,517.8927999950247,True,False
14,2,184.15632900000492,circle,"(-480.0, -270.0)",0,2795.7657000079053,534.3828000040958,True,False
14,2,184.17252480000025,circle,"(-480.0, -270.0)",0,2811.9615000032354,550.5785999994259,True,False
14,2,184.18878280000354,circle,"(-480.0, -270.0)",0,2828.219500006526,566.8366000027163,True,False
14,2,184.2043740999943,circle,"(-480.0, -270.0)",0,2843.8107999973,582.4278999934904,True,False
14,2,184.22383669999545,circle,"(-480.0, -270.0)",0,2863.273399998434,601.8904999946244,True,False
14,2,184.23798360000364,circle,"(-480.0, -270.0)",0,2877.4203000066336,616.0374000028241,True,False
14,2,184.2557769999985,circle,"(-480.0, -270.0)",0,2895.2137000014773,633.8307999976678,True,False
14,2,184.27297069999622,circle,"(-480.0, -270.0)",0,2912.4073999992106,651.0244999954011,True,False
14,2,184.2962644000072,circle,"(-480.0, -270.0)",0,2935.701100010192,674.3182000063825,True,False
14,2,184.31038930000796,circle,"(-480.0, -270.0)",0,2949.826000010944,688.4431000071345,True,False
14,2,184.33692470000824,circle,"(-480.0, -270.0)",0,2976.3614000112284,714.9785000074189,True,False
14,2,184.35443380000652,circle,"(-480.0, -270.0)",0,2993.870500009507,732.4876000056975,True,False
14,2,184.37132610000845,circle,"(-480.0, -270.0)",0,3010.7628000114346,749.3799000076251,True,False
14,2,184.3900175000017,circle,"(-480.0, -270.0)",0,3029.454200004693,768.0713000008836,True,False
14,2,184.40493170000263,circle,"(-480.0, -270.0)",0,3044.3684000056237,782.9855000018142,True,False
14,2,184.42326100000355,circle,"(-480.0, -270.0)",0,3062.697700006538,801.3148000027286,True,False
14,2,184.4378324999998,circle,"(-480.0, -270.0)",0,3077.2692000027746,815.8862999989651,True,False
14,2,184.4562161000067,circle,"(-480.0, -270.0)",0,3095.6528000097023,834.2699000058929,True,False
14,2,184.4728124999965,circle,"(-480.0, -270.0)",0,3112.2491999994963,850.8662999956869,True,False
14,2,184.48984120000387,circle,"(-480.0, -270.0)",0,3129.277900006855,867.8950000030454,True,False
14,2,184.50490899999568,circle,"(-480.0, -270.0)",0,3144.3456999986665,882.962799994857,True,False
14,2,184.52325850000489,circle,"(-480.0, -270.0)",0,3162.6952000078745,901.312300004065,True,False
14,2,184.53789740000502,circle,"(-480.0, -270.0)",0,3177.334100008011,915.9512000042014,True,False
14,2,184.55655520000437,circle,"(-480.0, -270.0)",0,3195.991900007357,934.6090000035474,True,False
14,2,184.5744349000015,circle,"(-480.0, -270.0)",0,3213.871600004495,952.4887000006856,True,False
14,2,184.5897868000029,circle,"(-480.0, -270.0)",0,3229.223500005901,967.8406000020914,True,False
14,2,184.60617490000732,circle,"(-480.0, -270.0)",0,3245.6116000103066,984.2287000064971,True,False
14,2,184.62205370000447,circle,"(-480.0, -270.0)",0,3261.4904000074603,1000.1075000036508,True,False
14,2,184.63948120000714,circle,"(-480.0, -270.0)",0,3278.9179000101285,1017.535000006319,True,False
14,2,184.65648819999478,circle,"(-480.0, -270.0)",0,3295.9248999977717,1034.5419999939622,True,False
14,2,184.67263909999747,circle,"(-480.0, -270.0)",0,3312.075800000457,1050.6928999966476,True,False
14,2,184.69063260000257,circle,"(-480.0, -270.0)",0,3330.0693000055617,1068.6864000017522,True,False
14,2,184.70630740000342,circle,"(-480.0, -270.0)",0,3345.7441000064136,1084.3612000026042,True,False
14,2,184.72280339999998,circle,"(-480.0, -270.0)",0,3362.240100002964,1100.8571999991545,True,False
14,2,184.73722799999814,circle,"(-480.0, -270.0)",0,3376.664700001129,1115.2817999973195,True,False
14,2,184.7548589000071,circle,"(-480.0, -270.0)",0,3394.295600010082,1132.9127000062726,True,False
14,2,184.77241190000495,circle,"(-480.0, -270.0)",0,3411.848600007943,1150.4657000041334,True,False
14,2,184.79037889999745,circle,"(-480.0, -270.0)",0,3429.8156000004383,1168.4326999966288,True,False
14,2,184.8061713000061,circle,"(-480.0, -270.0)",0,3445.608000009088,1184.2251000052784,True,False
14,2,184.8232452000084,circle,"(-480.0, -270.0)",0,3462.6819000113755,1201.299000007566,True,False
14,2,184.83916010000394,circle,"(-480.0, -270.0)",0,3478.596800006926,1217.2139000031166,True,False
14,2,184.8559610000084,circle,"(-480.0, -270.0)",0,3495.397700011381,1234.0148000075715,True,False
14,2,184.87143919999653,circle,"(-480.0, -270.0)",0,3510.875899999519,1249.4929999957094,True,False
14,2,184.8895135000057,circle,"(-480.0, -270.0)",0,3528.950200008694,1267.5673000048846,True,False
14,2,184.90562489999866,circle,"(-480.0, -270.0)",0,3545.0616000016453,1283.6786999978358,True,False
14,2,184.92337920000136,circle,"(-480.0, -270.0)",0,3562.8159000043524,1301.433000000543,True,False
14,2,184.9377150000073,circle,"(-480.0, -270.0)",0,3577.1517000102904,1315.768800006481,True,False
14,2,184.95486820000224,circle,"(-480.0, -270.0)",0,3594.304900005227,1332.9220000014175,True,False
14,2,184.97148789999483,circle,"(-480.0, -270.0)",0,3610.9245999978157,1349.5416999940062,True,False
14,2,184.9892061999999,circle,"(-480.0, -270.0)",0,3628.6429000028875,1367.259999999078,True,False
14,2,185.0061571999977,circle,"(-480.0, -270.0)",0,3645.5939000006765,1384.210999996867,True,False
14,2,185.02245659999608,circle,"(-480.0, -270.0)",0,3661.8932999990648,1400.5103999952553,True,False
14,2,185.03750160000345,circle,"(-480.0, -270.0)",0,3676.938300006441,1415.5554000026314,True,False
14,2,185.0568392999994,circle,"(-480.0, -270.0)",0,3696.276000002399,1434.8930999985896,True,False
14,2,185.07225379999727,circle,"(-480.0, -270.0)",0,3711.690500000259,1450.3075999964494,True,False
14,2,185.0884209000069,circle,"(-480.0, -270.0)",0,3727.8576000098838,1466.4747000060743,True,False
14,2,185.1042054999998,circle,"(-480.0, -270.0)",0,3743.642200002796,1482.2592999989865,True,False
14,2,185.12300970000797,circle,"(-480.0, -270.0)",0,3762.4464000109583,1501.0635000071488,True,False
14,2,185.13870419999876,circle,"(-480.0, -270.0)",0,3778.1409000017447,1516.7579999979353,True,False
14,2,185.15541720000328,circle,"(-480.0, -270.0)",0,3794.8539000062738,1533.4710000024643,True,False
14,2,185.17213130000164,circle,"(-480.0, -270.0)",0,3811.568000004627,1550.1851000008173,True,False
14,2,185.18978810000408,circle,"(-480.0, -270.0)",0,3829.2248000070686,1567.841900003259,True,False
14,2,185.205879000001,circle,"(-480.0, -270.0)",0,3845.3157000039937,1583.9328000001842,True,False
14,2,185.22338599999784,circle,"(-480.0, -270.0)",0,3862.8227000008337,1601.4397999970242,True,False
14,2,185.23984900000505,circle,"(-480.0, -270.0)",0,3879.2857000080403,1617.9028000042308,True,False
14,2,185.25844900000084,circle,"(-480.0, -270.0)",0,3897.885700003826,1636.5028000000166,True,False
14,2,185.2752116000047,circle,"(-480.0, -270.0)",0,3914.648300007684,1653.2654000038747,True,False
14,2,185.2899119000067,circle,"(-480.0, -270.0)",0,3929.348600009689,1667.9657000058796,True,False
14,2,185.30625429999782,circle,"(-480.0, -270.0)",0,3945.6910000008065,1684.308099996997,True,False
14,2,185.32400280000002,circle,"(-480.0, -270.0)",0,3963.4395000030054,1702.056599999196,True,False
14,2,185.33924329999718,circle,"(-480.0, -270.0)",0,3978.6800000001676,1717.2970999963582,True,False
14,2,185.35642569999618,circle,"(-480.0, -270.0)",0,3995.8623999991687,1734.4794999953592,True,False
14,2,185.372271500004,circle,"(-480.0, -270.0)",0,4011.7082000069786,1750.325300003169,True,False
14,2,185.3898468999978,circle,"(-480.0, -270.0)",0,4029.283600000781,1767.9006999969715,True,False
14,2,185.40656210000452,circle,"(-480.0, -270.0)",0,4045.99880000751,1784.6159000037005,True,False
15,1,199.68321440000727,circle,"(-480.0, -270.0)",264.309600010165,264.3406999995932,264.3406999995932,False,True
15,2,199.95156359999964,circle,"(-480.0, -270.0)",264.04019999608863,532.6898999919649,268.3491999923717,True,False
15,2,199.97088380000787,circle,"(-480.0, -270.0)",0,552.0101000001887,287.6694000005955,True,False
15,2,199.98445230000652,circle,"(-480.0, -270.0)",0,565.5785999988439,301.23789999925066,True,False
15,2,200.000607199996,circle,"(-480.0, -270.0)",0,581.7334999883315,317.39279998873826,True,False
15,2,200.01751999999397,circle,"(-480.0, -270.0)",0,598.6462999862852,334.30559998669196,True,False
15,2,200.0345748999971,circle,"(-480.0, -270.0)",0,615.7011999894166,351.36049998982344,True,False
15,2,200.0494064999948,circle,"(-480.0, -270.0)",0,630.5327999871224,366.1920999875292,True,False
15,2,200.06732190000184,circle,"(-480.0, -270.0)",0,648.4481999941636,384.1074999945704,True,False
15,2,200.08609320000687,circle,"(-480.0, -270.0)",0,667.2194999991916,402.8787999995984,True,False
15,2,200.10262040000816,circle,"(-480.0, -270.0)",0,683.7467000004835,419.40600000089034,True,False
15,2,200.1197334000026,circle,"(-480.0, -270.0)",0,700.8596999949077,436.5189999953145,True,False
15,2,200.13554750000185,circle,"(-480.0, -270.0)",0,716.6737999941688,452.3330999945756,True,False
15,2,200.15076709999994,circle,"(-480.0, -270.0)",0,731.8933999922592,467.552699992666,True,False
15,2,200.16786010000214,circle,"(-480.0, -270.0)",0,748.9863999944646,484.6456999948714,True,False
15,2,200.1841487000056,circle,"(-480.0, -270.0)",0,765.2749999979278,500.9342999983346,True,False
15,2,200.2008407999965,circle,"(-480.0, -270.0)",0,781.9670999888331,517.6263999892399,True,False
15,2,200.2178447000042,circle,"(-480.0, -270.0)",0,798.9709999965271,534.6302999969339,True,False
15,2,200.2344824000029,circle,"(-480.0, -270.0)",0,815.6086999952095,551.2679999956163,True,False
15,2,200.25048840000818,circle,"(-480.0, -270.0)",0,831.6147000005003,567.2740000009071,True,False
15,2,200.26715179999883,circle,"(-480.0, -270.0)",0,848.2780999911483,583.9373999915551,True,False
15,2,200.28590099999565,circle,"(-480.0, -270.0)",0,867.0272999879671,602.6865999883739,True,False
15,2,200.3014389000018,circle,"(-480.0, -270.0)",0,882.5651999941329,618.2244999945397,True,False
15,2,200.3172429999977,circle,"(-480.0, -270.0)",0,898.3692999900086,634.0285999904154,True,False
15,2,200.33419660000072,circle,"(-480.0, -270.0)",0,915.3228999930434,650.9821999934502,True,False
15,2,200.34921790000226,circle,"(-480.0, -270.0)",0,930.344199994579,666.0034999949858,True,False
15,2,200.36740909999935,circle,"(-480.0, -270.0)",0,948.5353999916697,684.1946999920765,True,False
15,2,200.38421160000144,circle,"(-480.0, -270.0)",0,965.3378999937559,700.9971999941627,True,False
15,2,200.40082999999868,circle,"(-480.0, -270.0)",0,981.9562999909976,717.6155999914045,True,False
15,2,200.41728560000774,circle,"(-480.0, -270.0)",0,998.4119000000646,734.0712000004714,True,False
15,2,200.43415610000375,circle,"(-480.0, -270.0)",0,1015.2823999960674,750.9416999964742,True,False
15,2,200.45063690000097,circle,"(-480.0, -270.0)",0,1031.7631999932928,767.4224999936996,True,False
15,2,200.46732650000195,circle,"(-480.0, -270.0)",0,1048.4527999942657,784.1120999946725,True,False
15,2,200.48362749999797,circle,"(-480.0, -270.0)",0,1064.7537999902852,800.413099990692,True,False
15,2,200.5015507000062,circle,"(-480.0, -270.0)",0,1082.6769999985117,818.3362999989185,True,False
15,2,200.5175470999966,circle,"(-480.0, -270.0)",0,1098.6733999889111,834.3326999893179,True,False
15,2,200.53442920000816,circle,"(-480.0, -270.0)",0,1115.5555000004824,851.2148000008892,True,False
15,2,200.55057190000662,circle,"(-480.0, -270.0)",0,1131.6981999989366,867.3574999993434,True,False
15,2,200.5677052999963,circle,"(-480.0, -270.0)",0,1148.8315999886254,884.4908999890322,True,False
15,2,200.58306220000668,circle,"(-480.0, -270.0)",0,1164.1884999989998,899.8477999994066,True,False
15,2,200.6004876000079,circle,"(-480.0, -270.0)",0,1181.6139000002295,917.2732000006363,True,False
15,2,200.61776890000328,circle,"(-480.0, -270.0)",0,1198.8951999956043,934.5544999960111,True,False
15,2,200.63361410000653,circle,"(-480.0, -270.0)",0,1214.7403999988455,950.3996999992523,True,False
15,2,200.65055639999628,circle,"(-480.0, -270.0)",0,1231.6826999885961,967.3419999890029,True,False
15,2,200.66736639999726,circle,"(-480.0, -270.0)",0,1248.4926999895833,984.1519999899901,True,False
15,2,200.68741990000126,circle,"(-480.0, -270.0)",0,1268.5461999935796,1004.2054999939865,True,False
15,2,200.70151490000717,circle,"(-480.0, -270.0)",0,1282.641199999489,1018.3004999998957,True,False
15,2,200.71758409999893,circle,"(-480.0, -270.0)",0,1298.7103999912506,1034.3696999916574,True,False
15,2,200.73385629999393,circle,"(-480.0, -270.0)",0,1314.9825999862514,1050.6418999866582,True,False
15,2,200.74987050000345,circle,"(-480.0, -270.0)",0,1330.9967999957735,1066.6560999961803,True,False
15,2,200.7668399999966,circle,"(-480.0, -270.0)",0,1347.9662999889115,1083.6255999893183,True,False
15,2,200.7837778999965,circle,"(-480.0, -270.0)",0,1364.904199988814,1100.5634999892209,True,False
15,2,200.80036890000338,circle,"(-480.0, -270.0)",0,1381.4951999956975,1117.1544999961043,True,False
15,2,200.81657100000302,circle,"(-480.0, -270.0)",0,1397.6972999953432,1133.35659999575,True,False
15,2,200.83430360000057,circle,"(-480.0, -270.0)",0,1415.429899992887,1151.0891999932937,True,False
15,2,200.85075520000828,circle,"(-480.0, -270.0)",0,1431.8815000005998,1167.5408000010066,True,False
15,2,200.86675460000697,circle,"(-480.0, -270.0)",0,1447.8808999992907,1183.5401999996975,True,False
15,2,200.88252070000453,circle,"(-480.0, -270.0)",0,1463.646999996854,1199.3062999972608,True,False
15,2,200.90105149999727,circle,"(-480.0, -270.0)",0,1482.1777999895858,1217.8370999899926,True,False
15,2,200.91602360000252,circle,"(-480.0, -270.0)",0,1497.149899994838,1232.8091999952449,True,False
15,2,200.9349518999952,circle,"(-480.0, -270.0)",0,1516.0781999875326,1251.7374999879394,True,False
15,2,200.94970310000645,circle,"(-480.0, -270.0)",0,1530.8293999987654,1266.4886999991722,True,False
15,2,200.96804750000592,circle,"(-480.0, -270.0)",0,1549.1737999982433,1284.8330999986501,True,False
15,2,200.98450350000348,circle,"(-480.0, -270.0)",0,1565.6297999958042,1301.289099996211,True,False
15,2,201.00139200000558,circle,"(-480.0, -270.0)",0,1582.5182999979006,1318.1775999983074,True,False
15,2,201.01664950000122,circle,"(-480.0, -270.0)",0,1597.775799993542,1333.4350999939488,True,False
15,2,201.03408959999797,circle,"(-480.0, -270.0)",0,1615.2158999902895,1350.8751999906963,True,False
15,2,201.0499514999974,circle,"(-480.0, -270.0)",0,1631.0777999897255,1366.7370999901323,True,False
15,2,201.0676936999953,circle,"(-480.0, -270.0)",0,1648.8199999876088,1384.4792999880156,True,False
15,2,201.08299480000278,circle,"(-480.0, -270.0)",0,1664.1210999951,1399.7803999955067,True,False
15,2,201.09921899999608,circle,"(-480.0, -270.0)",0,1680.345299988403,1416.0045999888098,True,False
15,2,201.11527840000053,circle,"(-480.0, -270.0)",0,1696.4046999928541,1432.063999993261,True,False
15,2,201.13329880000674,circle,"(-480.0, -270.0)",0,1714.4250999990618,1450.0843999994686,True,False
15,2,201.14914429999772,circle,"(-480.0, -270.0)",0,1730.2705999900354,1465.9298999904422,True,False
15,2,201.16707830000087,circle,"(-480.0, -270.0)",0,1748.204599993187,1483.8638999935938,True,False
15,2,201.18310969999584,circle,"(-480.0, -270.0)",0,1764.2359999881592,1499.895299988566,True,False
15,2,201.20070820000547,circle,"(-480.0, -270.0)",0,1781.8344999977853,1517.4937999981921,True,False
15,2,201.21639630000573,circle,"(-480.0, -270.0)",0,1797.5225999980466,1533.1818999984534,True,False
15,2,201.23396050000156,circle,"(-480.0, -270.0)",0,1815.0867999938782,1550.746099994285,True,False
15,2,201.25020199999562,circle,"(-480.0, -270.0)",0,1831.3282999879448,1566.9875999883516,True,False
15,2,201.26705270000093,circle,"(-480.0, -270.0)",0,1848.1789999932516,1583.8382999936584,True,False
15,2,201.2839529000048,circle,"(-480.0, -270.0)",0,1865.0791999971261,1600.738499997533,True,False
15,2,201.30119230000128,circle,"(-480.0, -270.0)",0,1882.3185999935959,1617.9778999940027,True,False
15,2,201.31657930000802,circle,"(-480.0, -270.0)",0,1897.7056000003358,1633.3649000007426,True,False
15,2,201.33422220000648,circle,"(-480.0, -270.0)",0,1915.3484999987995,1651.0077999992063,True,False
15,2,201.35035860000062,circle,"(-480.0, -270.0)",0,1931.4848999929382,1667.144199993345,True,False
15,2,201.3671808000072,circle,"(-480.0, -270.0)",0,1948.3070999995107,1683.9663999999175,True,False
15,2,201.38306390000798,circle,"(-480.0, -270.0)",0,1964.1902000003029,1699.8495000007097,True,False
15,2,201.40359580000222,circle,"(-480.0, -270.0)",0,1984.722099994542,1720.3813999949489,True,False
15,2,201.43308450000768,circle,"(-480.0, -270.0)",0,2014.2108000000007,1749.8701000004075,True,False
15,2,201.4498353999952,circle,"(-480.0, -270.0)",0,2030.9616999875288,1766.6209999879356,True,False
15,2,201.4672955999995,circle,"(-480.0, -270.0)",0,2048.4218999918085,1784.0811999922153,True,False
16,1,213.46150900000066,cross,"(480.0, -270.0)",264.22029999957886,4710.947500003385,4710.947500003385,False,True
16,2,213.91357560000324,cross,"(480.0, -270.0)",266.97549999516923,5163.014100005967,452.06660000258125,True,False
16,2,213.93268339999486,cross,"(480.0, -270.0)",0,5182.121899997583,471.1743999941973,True,False
16,2,213.94693999999436,cross,"(480.0, -270.0)",0,5196.378499997081,485.4309999936959,True,False
16,2,213.9634090000036,cross,"(480.0, -270.0)",0,5212.847500006319,501.90000000293367,True,False
16,2,213.979551299999,cross,"(480.0, -270.0)",0,5228.989800001727,518.0422999983421,True,False
16,2,213.99518139999418,cross,"(480.0, -270.0)",0,5244.619899996906,533.6723999935202,True,False
16,2,214.01328139999532,cross,"(480.0, -270.0)",0,5262.7198999980465,551.7723999946611,True,False
16,2,214.02945990000444,cross,"(480.0, -270.0)",0,5278.898400007165,567.9509000037797,True,False
16,2,214.0463996000035,cross,"(480.0, -270.0)",0,5295.838100006222,584.8906000028364,True,False
16,2,214.06212489999598,cross,"(480.0, -270.0)",0,5311.563399998704,600.6158999953186,True,False
16,2,214.0803145999962,cross,"(480.0, -270.0)",0,5329.753099998925,618.8055999955395,True,False
16,2,214.09606090000307,cross,"(480.0, -270.0)",0,5345.499400005792,634.5519000024069,True,False
16,2,214.11314299999503,cross,"(480.0, -270.0)",0,5362.581499997759,651.6339999943739,True,False
16,2,214.13147560000652,cross,"(480.0, -270.0)",0,5380.9141000092495,669.9666000058642,True,False
16,2,214.14804879999429,cross,"(480.0, -270.0)",0,5397.48729999701,686.5397999936249,True,False
16,2,214.16259239999636,cross,"(480.0, -270.0)",0,5412.030899999081,701.0833999956958,True,False
16,2,214.17923530000553,cross,"(480.0, -270.0)",0,5428.673800008255,717.7263000048697,True,False
16,2,214.19427259999793,cross,"(480.0, -270.0)",0,5443.711100000655,732.7635999972699,True,False
16,2,214.21095649999916,cross,"(480.0, -270.0)",0,5460.395000001881,749.4474999984959,True,False
16,2,214.2298665999988,cross,"(480.0, -270.0)",0,5479.305100001511,768.3575999981258,True,False
16,2,214.24523919999774,cross,"(480.0, -270.0)",0,5494.677700000466,783.7301999970805,True,False
16,2,214.26394620000792,cross,"(480.0, -270.0)",0,5513.384700010647,802.4372000072617,True,False
16,2,214.27997529999993,cross,"(480.0, -270.0)",0,5529.413800002658,818.4662999992725,True,False
16,2,214.29687879999983,cross,"(480.0, -270.0)",0,5546.317300002556,835.3697999991709,True,False
16,2,214.3116383000015,cross,"(480.0, -270.0)",0,5561.07680000423,850.1293000008445,True,False
16,2,214.330237400005,cross,"(480.0, -270.0)",0,5579.6759000077145,868.7284000043292,True,False
16,2,214.3453051999968,cross,"(480.0, -270.0)",0,5594.743699999526,883.7961999961408,True,False
16,2,214.36342629999854,cross,"(480.0, -270.0)",0,5612.864800001262,901.9172999978764,True,False
16,2,214.3790788000042,cross,"(480.0, -270.0)",0,5628.5173000069335,917.5698000035482,True,False
16,2,214.3968903000059,cross,"(480.0, -270.0)",0,5646.328800008632,935.3813000052469,True,False
16,2,214.41173100000015,cross,"(480.0, -270.0)",0,5661.16950000287,950.221999999485,True,False
16,2,214.42970409999543,cross,"(480.0, -270.0)",0,5679.142599998158,968.195099994773,True,False
16,2,214.44574660000217,cross,"(480.0, -270.0)",0,5695.185100004892,984.2376000015065,True,False
16,2,214.4634578999976,cross,"(480.0, -270.0)",0,5712.896400000318,1001.9488999969326,True,False
16,2,214.47895590000553,cross,"(480.0, -270.0)",0,5728.394400008256,1017.4469000048703,True,False
16,2,214.49607209999522,cross,"(480.0, -270.0)",0,5745.510599997942,1034.563099994557,True,False
16,2,214.51184690000082,cross,"(480.0, -270.0)",0,5761.285400003544,1050.3379000001587,True,False
16,2,214.52952280000318,cross,"(480.0, -270.0)",0,5778.9613000059035,1068.013800002518,True,False
16,2,214.54564440000104,cross,"(480.0, -270.0)",0,5795.082900003763,1084.1354000003776,True,False
16,2,214.5624272999994,cross,"(480.0, -270.0)",0,5811.865800002124,1100.9182999987388,True,False
16,2,214.57966770000348,cross,"(480.0, -270.0)",0,5829.106200006208,1118.158700002823,True,False
16,2,214.59657320000406,cross,"(480.0, -270.0)",0,5846.011700006784,1135.0642000033986,True,False
16,2,214.61167100000603,cross,"(480.0, -270.0)",0,5861.109500008752,1150.1620000053663,True,False
16,2,214.62901069999498,cross,"(480.0, -270.0)",0,5878.4491999977035,1167.5016999943182,True,False
16,2,214.64444869999716,cross,"(480.0, -270.0)",0,5893.887199999881,1182.9396999964956,True,False
16,2,214.66347499999392,cross,"(480.0, -270.0)",0,5912.913499996648,1201.9659999932628,True,False
16,2,214.6794962999993,cross,"(480.0, -270.0)",0,5928.934800002025,1217.98729999864,True,False
16,2,214.70067249999556,cross,"(480.0, -270.0)",0,5950.110999998287,1239.163499994902,True,False
16,2,214.73034940000798,cross,"(480.0, -270.0)",0,5979.787900010706,1268.8404000073206,True,False
16,2,214.744569100003,cross,"(480.0, -270.0)",0,5994.007600005716,1283.0601000023307,True,False
16,2,214.76174000000174,cross,"(480.0, -270.0)",0,6011.178500004462,1300.2310000010766,True,False
16,2,214.77966440000455,cross,"(480.0, -270.0)",0,6029.102900007274,1318.1554000038886,True,False
16,2,214.79642020000028,cross,"(480.0, -270.0)",0,6045.858700003009,1334.911199999624,True,False
16,2,214.81184710000525,cross,"(480.0, -270.0)",0,6061.285600007977,1350.338100004592,True,False
16,2,214.82973199999833,cross,"(480.0, -270.0)",0,6079.170500001055,1368.2229999976698,True,False
16,2,214.84508729999652,cross,"(480.0, -270.0)",0,6094.525799999246,1383.578299995861,True,False
16,2,214.86311639999622,cross,"(480.0, -270.0)",0,6112.5548999989405,1401.6073999955552,True,False
16,2,214.8784553000005,cross,"(480.0, -270.0)",0,6127.893800003221,1416.946299999836,True,False
16,2,214.8960412000015,cross,"(480.0, -270.0)",0,6145.479700004216,1434.532200000831,True,False
16,2,214.9120510000066,cross,"(480.0, -270.0)",0,6161.489500009338,1450.542000005953,True,False
16,2,214.92891750000126,cross,"(480.0, -270.0)",0,6178.356000003987,1467.4085000006016,True,False
16,2,214.9454059999989,cross,"(480.0, -270.0)",0,6194.844500001636,1483.896999998251,True,False
16,2,214.961518600001,cross,"(480.0, -270.0)",0,6210.957100003725,1500.0096000003396,True,False
16,2,214.97780649999913,cross,"(480.0, -270.0)",0,6227.245000001858,1516.2974999984726,True,False
16,2,214.99723670000094,cross,"(480.0, -270.0)",0,6246.675200003665,1535.7277000002796,True,False
16,2,215.0132780999993,cross,"(480.0, -270.0)",0,6262.7166000020225,1551.769099998637,True,False
16,2,215.03064320000703,cross,"(480.0, -270.0)",0,6280.0817000097595,1569.1342000063742,True,False
16,2,215.0468072000076,cross,"(480.0, -270.0)",0,6296.245700010331,1585.298200006946,True,False
16,2,215.06356629999937,cross,"(480.0, -270.0)",0,6313.004800002091,1602.0572999987053,True,False
16,2,215.0788712000067,cross,"(480.0, -270.0)",0,6328.309700009413,1617.3622000060277,True,False
16,2,215.10254639999766,cross,"(480.0, -270.0)",0,6351.984900000389,1641.0373999970034,True,False
16,2,215.12083889999485,cross,"(480.0, -270.0)",0,6370.277399997576,1659.3298999941908,True,False
16,2,215.14589450000494,cross,"(480.0, -270.0)",0,6395.333000007668,1684.3855000042822,True,False
16,2,215.16598439999507,cross,"(480.0, -270.0)",0,6415.422899997793,1704.4753999944078,True,False
16,2,215.18258229999628,cross,"(480.0, -270.0)",0,6432.020799999009,1721.0732999956235,True,False
16,2,215.2004062000051,cross,"(480.0, -270.0)",0,6449.844700007816,1738.8972000044305,True,False
16,2,215.22027459999663,cross,"(480.0, -270.0)",0,6469.713099999353,1758.765599995968,True,False
16,2,215.2454127999954,cross,"(480.0, -270.0)",0,6494.851299998118,1783.9037999947323,True,False
17,1,229.47509380000702,circle,"(-480.0, -270.0)",265.9284000110347,265.96380000410136,265.96380000410136,False,True
17,2,229.74237249999715,circle,"(-480.0, -270.0)",262.8620999894338,533.2424999942305,267.2786999901291,True,False
17,2,229.76186240000243,circle,"(-480.0, -270.0)",0,552.7323999995133,286.76859999541193,True,False
17,2,229.77640570000221,circle,"(-480.0, -270.0)",0,567.2756999992998,301.3118999951985,True,False
17,2,229.79032499999448,circle,"(-480.0, -270.0)",0,581.1949999915669,315.2311999874655,True,False
17,2,229.80846729999757,circle,"(-480.0, -270.0)",0,599.3372999946587,333.3734999905573,True,False
17,2,229.82369879999897,circle,"(-480.0, -270.0)",0,614.5687999960501,348.6049999919487,True,False
17,2,229.84064330000547,circle,"(-480.0, -270.0)",0,631.5133000025526,365.5494999984512,True,False
17,2,229.8567144999979,circle,"(-480.0, -270.0)",0,647.5844999949913,381.62069999089,True,False
17,2,229.87452389999817,circle,"(-480.0, -270.0)",0,665.3938999952516,399.4300999911502,True,False
17,2,229.890928599998,circle,"(-480.0, -270.0)",0,681.7985999950906,415.83479999098927,True,False
17,2,229.90762030000042,circle,"(-480.0, -270.0)",0,698.490299997502,432.52649999340065,True,False
17,2,229.92573919999995,circle,"(-480.0, -270.0)",0,716.6091999970376,450.6453999929363,True,False
17,2,229.94428389999666,circle,"(-480.0, -270.0)",0,735.1538999937475,469.1900999896461,True,False
17,2,229.96258370000578,circle,"(-480.0, -270.0)",0,753.4537000028649,487.4898999987636,True,False
17,2,229.9795882000035,circle,"(-480.0, -270.0)",0,770.4582000005757,504.4943999964744,True,False
17,2,229.99703909999516,circle,"(-480.0, -270.0)",0,787.9090999922482,521.9452999881469,True,False
17,2,230.0161048000009,circle,"(-480.0, -270.0)",0,806.9747999979882,541.0109999938868,True,False
17,2,230.03326769999694,circle,"(-480.0, -270.0)",0,824.1376999940258,558.1738999899244,True,False
17,2,230.04968820000067,circle,"(-480.0, -270.0)",0,840.5581999977585,574.5943999936571,True,False
17,2,230.07465120000415,circle,"(-480.0, -270.0)",0,865.5212000012398,599.5573999971384,True,False
17,2,230.0901060000033,circle,"(-480.0, -270.0)",0,880.9760000003735,615.0121999962721,True,False
17,2,230.10785260000557,circle,"(-480.0, -270.0)",0,898.7226000026567,632.7587999985553,True,False
17,2,230.12343580000743,circle,"(-480.0, -270.0)",0,914.305800004513,648.3420000004116,True,False
17,2,230.14146670000628,circle,"(-480.0, -270.0)",0,932.3367000033613,666.37289999926,True,False
17,2,230.1573514000047,circle,"(-480.0, -270.0)",0,948.2214000017848,682.2575999976834,True,False
17,2,230.17496329999994,circle,"(-480.0, -270.0)",0,965.8332999970298,699.8694999929285,True,False
17,2,230.1904921999958,circle,"(-480.0, -270.0)",0,981.3621999928728,715.3983999887714,True,False
17,2,230.2081235000078,circle,"(-480.0, -270.0)",0,998.9935000048717,733.0297000007704,True,False
17,2,230.2231036000012,circle,"(-480.0, -270.0)",0,1013.9735999982804,748.009799994179,True,False
17,2,230.24110470000596,circle,"(-480.0, -270.0)",0,1031.9747000030475,766.0108999989461,True,False
17,2,230.2575485999987,circle,"(-480.0, -270.0)",0,1048.4185999957845,782.4547999916831,True,False
17,2,230.27428969999892,circle,"(-480.0, -270.0)",0,1065.159699996002,799.1958999919007,True,False
17,2,230.29112270000041,circle,"(-480.0, -270.0)",0,1081.9926999974996,816.0288999933982,True,False
17,2,230.30766510000103,circle,"(-480.0, -270.0)",0,1098.5350999981165,832.5712999940151,True,False
17,2,230.32863669999642,circle,"(-480.0, -270.0)",0,1119.506699993508,853.5428999894066,True,False
17,2,230.34400260000257,circle,"(-480.0, -270.0)",0,1134.8725999996532,868.9087999955518,True,False
17,2,230.35850329999812,circle,"(-480.0, -270.0)",0,1149.3732999952044,883.4094999911031,True,False
17,2,230.37414129999524,circle,"(-480.0, -270.0)",0,1165.0112999923294,899.0474999882281,True,False
17,2,230.39024940000672,circle,"(-480.0, -270.0)",0,1181.1194000038086,915.1555999997072,True,False
17,2,230.40724760000012,circle,"(-480.0, -270.0)",0,1198.1175999972038,932.1537999931024,True,False
17,2,230.42392760000075,circle,"(-480.0, -270.0)",0,1214.797599997837,948.8337999937357,True,False
17,2,230.44047370000044,circle,"(-480.0, -270.0)",0,1231.3436999975238,965.3798999934224,True,False
17,2,230.45711360000132,circle,"(-480.0, -270.0)",0,1247.9835999984061,982.0197999943048,True,False
17,2,230.47534079999605,circle,"(-480.0, -270.0)",0,1266.2107999931322,1000.2469999890309,True,False
17,2,230.49009730000398,circle,"(-480.0, -270.0)",0,1280.9673000010662,1015.0034999969648,True,False
17,2,230.5083631000016,circle,"(-480.0, -270.0)",0,1299.2330999986734,1033.269299994572,True,False
17,2,230.52450290000706,circle,"(-480.0, -270.0)",0,1315.3729000041494,1049.409100000048,True,False
17,2,230.54103290000057,circle,"(-480.0, -270.0)",0,1331.902899997658,1065.9390999935567,True,False
17,2,230.55754429999797,circle,"(-480.0, -270.0)",0,1348.4142999950564,1082.450499990955,True,False
17,2,230.57458359999873,circle,"(-480.0, -270.0)",0,1365.453599995817,1099.4897999917157,True,False
17,2,230.59021520000533,circle,"(-480.0, -270.0)",0,1381.085200002417,1115.1213999983156,True,False
17,2,230.60660709999502,circle,"(-480.0, -270.0)",0,1397.477099992102,1131.5132999880007,True,False
17,2,230.62332610000158,circle,"(-480.0, -270.0)",0,1414.1960999986622,1148.232299994561,True,False
17,2,230.64006320000044,circle,"(-480.0, -270.0)",0,1430.9331999975257,1164.9693999934243,True,False
17,2,230.6555459000083,circle,"(-480.0, -270.0)",0,1446.415900005377,1180.4521000012755,True,False
17,2,230.6734706999996,circle,"(-480.0, -270.0)",0,1464.3406999966828,1198.3768999925815,True,False
17,2,230.69064149999758,circle,"(-480.0, -270.0)",0,1481.5114999946672,1215.547699990566,True,False
17,2,230.7071791000053,circle,"(-480.0, -270.0)",0,1498.0491000023903,1232.085299998289,True,False
17,2,230.7236297000054,circle,"(-480.0, -270.0)",0,1514.4997000024887,1248.5358999983873,True,False
17,2,230.74041130000842,circle,"(-480.0, -270.0)",0,1531.281300005503,1265.3175000014016,True,False
17,2,230.75666110000748,circle,"(-480.0, -270.0)",0,1547.5311000045622,1281.5673000004608,True,False
17,2,230.77958230000513,circle,"(-480.0, -270.0)",0,1570.4523000022164,1304.488499998115,True,False
17,2,230.7949602000008,circle,"(-480.0, -270.0)",0,1585.8301999978721,1319.8663999937708,True,False
17,2,230.80943340000522,circle,"(-480.0, -270.0)",0,1600.3034000023035,1334.3395999982022,True,False
17,2,230.82601849999628,circle,"(-480.0, -270.0)",0,1616.8884999933653,1350.924699989264,True,False
17,2,230.84316859999672,circle,"(-480.0, -270.0)",0,1634.0385999938007,1368.0747999896994,True,False
17,2,230.85868469999696,circle,"(-480.0, -270.0)",0,1649.5546999940416,1383.5908999899402,True,False
17,2,230.8752067000023,circle,"(-480.0, -270.0)",0,1666.076699999394,1400.1128999952925,True,False
17,2,230.88975960000244,circle,"(-480.0, -270.0)",0,1680.62959999952,1414.6657999954186,True,False
17,2,230.90715699999419,circle,"(-480.0, -270.0)",0,1698.0269999912707,1432.0631999871694,True,False
17,2,230.92333520000102,circle,"(-480.0, -270.0)",0,1714.205199998105,1448.2413999940036,True,False
17,2,230.9419770999957,circle,"(-480.0, -270.0)",0,1732.8470999927958,1466.8832999886945,True,False
17,2,230.9578529999999,circle,"(-480.0, -270.0)",0,1748.7229999969713,1482.75919999287,True,False
17,2,230.97470710000198,circle,"(-480.0, -270.0)",0,1765.5770999990636,1499.6132999949623,True,False
17,2,230.99006189999636,circle,"(-480.0, -270.0)",0,1780.9318999934476,1514.9680999893462,True,False
17,2,231.00735709999572,circle,"(-480.0, -270.0)",0,1798.2270999928005,1532.2632999886991,True,False
17,2,231.02390729999752,circle,"(-480.0, -270.0)",0,1814.7772999946028,1548.8134999905014,True,False
17,2,231.04055560000415,circle,"(-480.0, -270.0)",0,1831.4256000012392,1565.4617999971379,True,False
17,2,231.056691699996,circle,"(-480.0, -270.0)",0,1847.5616999930935,1581.5978999889921,True,False
17,2,231.07865690000472,circle,"(-480.0, -270.0)",0,1869.5269000018016,1603.5630999977002,True,False
17,2,231.09204790000513,circle,"(-480.0, -270.0)",0,1882.9179000022123,1616.954099998111,True,False
17,2,231.10696940000344,circle,"(-480.0, -270.0)",0,1897.839400000521,1631.8755999964196,True,False
17,2,231.12393800000427,circle,"(-480.0, -270.0)",0,1914.8080000013579,1648.8441999972565,True,False
17,2,231.14116549999744,circle,"(-480.0, -270.0)",0,1932.0354999945266,1666.0716999904253,True,False
17,2,231.15742950000276,circle,"(-480.0, -270.0)",0,1948.2994999998482,1682.3356999957468,True,False
17,2,231.1745132000069,circle,"(-480.0, -270.0)",0,1965.3832000039984,1699.419399999897,True,False
17,2,231.19067399999767,circle,"(-480.0, -270.0)",0,1981.5439999947557,1715.5801999906544,True,False
17,2,231.20752779999748,circle,"(-480.0, -270.0)",0,1998.3977999945637,1732.4339999904623,True,False
17,2,231.22305139999662,circle,"(-480.0, -270.0)",0,2013.9213999937056,1747.9575999896042,True,False
17,2,231.24035500000173,circle,"(-480.0, -270.0)",0,2031.2249999988126,1765.2611999947112,True,False
17,2,231.2571442000044,circle,"(-480.0, -270.0)",0,2048.0142000014894,1782.050399997388,True,False
18,1,239.92148540000198,circle,"(-480.0, -270.0)",252.87189999653492,1381.9753999996465,1381.9753999996465,False,True
18,2,240.1888401000033,circle,"(-480.0, -270.0)",262.05689999915194,1649.3301000009524,267.3547000013059,True,False
18,2,240.20952420000685,circle,"(-480.0, -270.0)",0,1670.0142000045162,288.0388000048697,True,False
18,2,240.2230539000011,circle,"(-480.0, -270.0)",0,1683.5438999987673,301.56849999912083,True,False
18,2,240.23771509999642,circle,"(-480.0, -270.0)",0,1698.2050999940839,316.2296999944374,True,False
18,2,240.25462459999835,circle,"(-480.0, -270.0)",0,1715.1145999960136,333.1391999963671,True,False
18,2,240.27112160000252,circle,"(-480.0, -270.0)",0,1731.6116000001784,349.63620000053197,True,False
18,2,240.2898114999989,circle,"(-480.0, -270.0)",0,1750.3014999965671,368.3260999969207,True,False
18,2,240.3049089999986,circle,"(-480.0, -270.0)",0,1765.3989999962505,383.423599996604,True,False
18,2,240.32238620000135,circle,"(-480.0, -270.0)",0,1782.8761999990093,400.9007999993628,True,False
18,2,240.3378085000004,circle,"(-480.0, -270.0)",0,1798.2984999980545,416.323099998408,True,False
18,2,240.35540749999927,circle,"(-480.0, -270.0)",0,1815.897499996936,433.9220999972895,True,False
18,2,240.37178420000419,circle,"(-480.0, -270.0)",0,1832.274200001848,450.29880000220146,True,False
18,2,240.3894322999986,circle,"(-480.0, -270.0)",0,1849.9222999962512,467.94689999660477,True,False
18,2,240.4092490000039,circle,"(-480.0, -270.0)",0,1869.739000001573,487.76360000192653,True,False
18,2,240.43870080000488,circle,"(-480.0, -270.0)",0,1899.1908000025433,517.2154000028968,True,False
18,2,240.45705330000783,circle,"(-480.0, -270.0)",0,1917.543300005491,535.5679000058444,True,False
18,2,240.47322580000036,circle,"(-480.0, -270.0)",0,1933.7157999980263,551.7403999983799,True,False
18,2,240.48943250000593,circle,"(-480.0, -270.0)",0,1949.922500003595,567.9471000039484,True,False
18,2,240.50753679999616,circle,"(-480.0, -270.0)",0,1968.0267999938224,586.0513999941759,True,False
18,2,240.52594469999894,circle,"(-480.0, -270.0)",0,1986.4346999966074,604.4592999969609,True,False
18,2,240.55504780000774,circle,"(-480.0, -270.0)",0,2015.5378000054043,633.5624000057578,True,False
18,2,240.57185360000585,circle,"(-480.0, -270.0)",0,2032.3436000035144,650.368200003868,True,False
18,2,240.5897607999941,circle,"(-480.0, -270.0)",0,2050.2507999917725,668.275399992126,True,False
18,2,240.6053974999959,circle,"(-480.0, -270.0)",0,2065.8874999935506,683.9120999939041,True,False
18,2,240.62091820000205,circle,"(-480.0, -270.0)",0,2081.4081999997143,699.4328000000678,True,False
18,2,240.63657240000612,circle,"(-480.0, -270.0)",0,2097.0624000037787,715.0870000041323,True,False
18,2,240.65506040000764,circle,"(-480.0, -270.0)",0,2115.5504000053043,733.5750000056578,True,False
18,2,240.67112389999966,circle,"(-480.0, -270.0)",0,2131.613899997319,749.6384999976726,True,False
18,2,240.68871270000818,circle,"(-480.0, -270.0)",0,2149.2027000058442,767.2273000061978,True,False
18,2,240.70448739999847,circle,"(-480.0, -270.0)",0,2164.9773999961326,783.0019999964861,True,False
18,2,240.7207447999972,circle,"(-480.0, -270.0)",0,2181.2347999948543,799.2593999952078,True,False
18,2,240.7374572999979,circle,"(-480.0, -270.0)",0,2197.947299995576,815.9718999959296,True,False
18,2,240.75333979999414,circle,"(-480.0, -270.0)",0,2213.8297999917995,831.854399992153,True,False
18,2,240.77063139999518,circle,"(-480.0, -270.0)",0,2231.121399992844,849.1459999931976,True,False
18,2,240.78871429999708,circle,"(-480.0, -270.0)",0,2249.2042999947444,867.2288999950979,True,False
18,2,240.80400699999882,circle,"(-480.0, -270.0)",0,2264.4969999964815,882.521599996835,True,False
18,2,240.82069239999691,circle,"(-480.0, -270.0)",0,2281.1823999945773,899.2069999949308,True,False
18,2,240.83505950000836,circle,"(-480.0, -270.0)",0,2295.549500006018,913.5741000063717,True,False
18,2,240.85321220000333,circle,"(-480.0, -270.0)",0,2313.7022000009893,931.7268000013428,True,False
18,2,240.86985590000404,circle,"(-480.0, -270.0)",0,2330.345900001703,948.3705000020564,True,False
18,2,240.88653329999943,circle,"(-480.0, -270.0)",0,2347.0232999970904,965.0478999974439,True,False
18,2,240.90373099999852,circle,"(-480.0, -270.0)",0,2364.220999996178,982.2455999965314,True,False
18,2,240.92109340000025,circle,"(-480.0, -270.0)",0,2381.5833999979077,999.6079999982612,True,False
18,2,240.93801290000556,circle,"(-480.0, -270.0)",0,2398.5029000032227,1016.5275000035763,True,False
18,2,240.95284939999692,circle,"(-480.0, -270.0)",0,2413.339399994584,1031.3639999949373,True,False
18,2,240.97097290000238,circle,"(-480.0, -270.0)",0,2431.4629000000423,1049.4875000003958,True,False
18,2,240.98756870000216,circle,"(-480.0, -270.0)",0,2448.0586999998195,1066.083300000173,True,False
18,2,241.00311859999783,circle,"(-480.0, -270.0)",0,2463.6085999954958,1081.6331999958493,True,False
18,2,241.02136909999535,circle,"(-480.0, -270.0)",0,2481.8590999930166,1099.88369999337,True,False
18,2,241.0363040999946,circle,"(-480.0, -270.0)",0,2496.7940999922575,1114.818699992611,True,False
18,2,241.05474590000813,circle,"(-480.0, -270.0)",0,2515.2359000057913,1133.2605000061449,True,False
18,2,241.0704856999946,circle,"(-480.0, -270.0)",0,2530.9756999922683,1149.0002999926219,True,False
18,2,241.08814439999696,circle,"(-480.0, -270.0)",0,2548.6343999946257,1166.6589999949792,True,False
18,2,241.104868800001,circle,"(-480.0, -270.0)",0,2565.3587999986485,1183.383399999002,True,False
18,2,241.12150130000373,circle,"(-480.0, -270.0)",0,2581.991300001391,1200.0159000017447,True,False
18,2,241.13719920000585,circle,"(-480.0, -270.0)",0,2597.689200003515,1215.7138000038685,True,False
18,2,241.15415010000288,circle,"(-480.0, -270.0)",0,2614.6401000005426,1232.6647000008961,True,False
18,2,241.1694853000081,circle,"(-480.0, -270.0)",0,2629.9753000057535,1247.999900006107,True,False
18,2,241.1879251000064,circle,"(-480.0, -270.0)",0,2648.4151000040583,1266.4397000044119,True,False
18,2,241.2035171000025,circle,"(-480.0, -270.0)",0,2664.0071000001626,1282.0317000005161,True,False
18,2,241.22130160000233,circle,"(-480.0, -270.0)",0,2681.791599999997,1299.8162000003504,True,False
18,2,241.23404270000174,circle,"(-480.0, -270.0)",0,2694.5326999993995,1312.557299999753,True,False
18,2,241.2530359999946,circle,"(-480.0, -270.0)",0,2713.525999992271,1331.5505999926245,True,False
18,2,241.2689124000026,circle,"(-480.0, -270.0)",0,2729.4024000002537,1347.4270000006072,True,False
18,2,241.2869395000016,circle,"(-480.0, -270.0)",0,2747.429499999271,1365.4540999996243,True,False
18,2,241.303422099998,circle,"(-480.0, -270.0)",0,2763.9120999956504,1381.9366999960039,True,False
18,2,241.32072139999946,circle,"(-480.0, -270.0)",0,2781.211399997119,1399.2359999974724,True,False
18,2,241.33713670000725,circle,"(-480.0, -270.0)",0,2797.626700004912,1415.6513000052655,True,False
18,2,241.3540595999948,circle,"(-480.0, -270.0)",0,2814.5495999924606,1432.574199992814,True,False
18,2,241.37023369999952,circle,"(-480.0, -270.0)",0,2830.723699997179,1448.7482999975327,True,False
18,2,241.38653689999774,circle,"(-480.0, -270.0)",0,2847.0268999953987,1465.0514999957522,True,False
18,2,241.40347380000458,circle,"(-480.0, -270.0)",0,2863.9638000022387,1481.9884000025922,True,False
18,2,241.42041910000262,circle,"(-480.0, -270.0)",0,2880.909100000281,1498.9337000006344,True,False
18,2,241.4372743999993,circle,"(-480.0, -270.0)",0,2897.7643999969587,1515.7889999973122,True,False
18,2,241.45382419999805,circle,"(-480.0, -270.0)",0,2914.314199995715,1532.3387999960687,True,False
18,2,241.4694376999978,circle,"(-480.0, -270.0)",0,2929.92769999546,1547.9522999958135,True,False
18,2,241.486313100002,circle,"(-480.0, -270.0)",0,2946.80309999967,1564.8277000000235,True,False
18,2,241.50336089999473,circle,"(-480.0, -270.0)",0,2963.8508999923943,1581.8754999927478,True,False
18,2,241.52237590000732,circle,"(-480.0, -270.0)",0,2982.865900004981,1600.8905000053346,True,False
18,2,241.5383334000071,circle,"(-480.0, -270.0)",0,2998.823400004767,1616.8480000051204,True,False
18,2,241.5559537999943,circle,"(-480.0, -270.0)",0,3016.4437999919755,1634.468399992329,True,False
18,2,241.57197580000502,circle,"(-480.0, -270.0)",0,3032.465800002683,1650.4904000030365,True,False
18,2,241.58879850000085,circle,"(-480.0, -270.0)",0,3049.288499998511,1667.3130999988643,True,False
18,2,241.60463040000468,circle,"(-480.0, -270.0)",0,3065.1204000023426,1683.1450000026962,True,False
18,2,241.62088020000374,circle,"(-480.0, -270.0)",0,3081.370200001402,1699.3948000017554,True,False
18,2,241.63717180000094,circle,"(-480.0, -270.0)",0,3097.6617999986047,1715.6863999989582,True,False
18,2,241.65329139999812,circle,"(-480.0, -270.0)",0,3113.781399995787,1731.8059999961406,True,False
18,2,241.66919570000027,circle,"(-480.0, -270.0)",0,3129.6856999979354,1747.710299998289,True,False
18,2,241.6885304000025,circle,"(-480.0, -270.0)",0,3149.020400000154,1767.0450000005076,True,False
18,2,241.7035443000059,circle,"(-480.0, -270.0)",0,3164.03430000355,1782.0589000039035,True,False
19,1,257.0669283000025,star,"(-480.0, 270.0)",268.31690000835806,1398.9828000048874,1398.9828000048874,False,True
19,2,257.3332403999957,star,"(-480.0, 270.0)",260.6082999991486,1665.2948999981163,266.3120999932289,True,False
19,2,257.35619869999937,star,"(-480.0, 270.0)",0,1688.2532000017818,289.2703999968944,True,False
19,2,257.3823725999973,star,"(-480.0, 270.0)",0,1714.4270999997389,315.44429999485146,True,False
19,2,257.3993069999997,star,"(-480.0, 270.0)",0,1731.3615000020945,332.37869999720715,True,False
19,2,257.4175282000069,star,"(-480.0, 270.0)",0,1749.5827000093414,350.59990000445396,True,False
19,2,257.4349290999962,star,"(-480.0, 270.0)",0,1766.983599998639,368.00079999375157,True,False
19,2,257.46790400000464,star,"(-480.0, 270.0)",0,1799.958500007051,400.97570000216365,True,False
19,2,257.48405430000275,star,"(-480.0, 270.0)",0,1816.1088000051677,417.1260000002803,True,False
19,2,257.5012557000009,star,"(-480.0, 270.0)",0,1833.310200003325,434.3273999984376,True,False
19,2,257.5171083000023,star,"(-480.0, 270.0)",0,1849.1628000047058,450.1799999998184,True,False
19,2,257.5350963999954,star,"(-480.0, 270.0)",0,1867.150899997796,468.16809999290854,True,False
19,2,257.5508155999996,star,"(-480.0, 270.0)",0,1882.8701000020374,483.88729999714997,True,False
19,2,257.56831099999545,star,"(-480.0, 270.0)",0,1900.3654999978608,501.38269999297336,True,False
19,2,257.58677290000196,star,"(-480.0, 270.0)",0,1918.8274000043748,519.8445999994874,True,False
19,2,257.606506600001,star,"(-480.0, 270.0)",0,1938.561100003426,539.5782999985386,True,False
19,2,257.62546470000234,star,"(-480.0, 270.0)",0,1957.5192000047537,558.5363999998663,True,False
19,2,257.6452212000004,star,"(-480.0, 270.0)",0,1977.2757000027923,578.2928999979049,True,False
19,2,257.6673652000027,star,"(-480.0, 270.0)",0,1999.4197000050917,600.4369000002043,True,False
19,2,257.6845109999995,star,"(-480.0, 270.0)",0,2016.5655000018887,617.5826999970013,True,False
19,2,257.7344563999941,star,"(-480.0, 270.0)",0,2066.5108999965014,667.528099991614,True,False
19,2,257.7555577000021,star,"(-480.0, 270.0)",0,2087.6122000045143,688.6293999996269,True,False
19,2,257.7812736000051,star,"(-480.0, 270.0)",0,2113.328100007493,714.3453000026057,True,False
19,2,257.7977123000019,star,"(-480.0, 270.0)",0,2129.7668000042904,730.783999999403,True,False
19,2,257.81487849999394,star,"(-480.0, 270.0)",0,2146.932999996352,747.9501999914646,True,False
19,2,257.83133129999624,star,"(-480.0, 270.0)",0,2163.3857999986503,764.4029999937629,True,False
19,2,257.8475827000075,star,"(-480.0, 270.0)",0,2179.6372000098927,780.6544000050053,True,False
19,2,257.86552730000403,star,"(-480.0, 270.0)",0,2197.5818000064464,798.599000001559,True,False
19,2,257.8830633000034,star,"(-480.0, 270.0)",0,2215.117800005828,816.1350000009406,True,False
19,2,257.9005548999994,star,"(-480.0, 270.0)",0,2232.60940000182,833.6265999969328,True,False
19,2,257.93074660000275,star,"(-480.0, 270.0)",0,2262.801100005163,863.8183000002755,True,False
19,2,257.94744800000626,star,"(-480.0, 270.0)",0,2279.5025000086753,880.5197000037879,True,False
19,2,257.965506499997,star,"(-480.0, 270.0)",0,2297.560999999405,898.5781999945175,True,False
19,2,257.9817899000045,star,"(-480.0, 270.0)",0,2313.8444000069285,914.8616000020411,True,False
19,2,257.9999267999956,star,"(-480.0, 270.0)",0,2331.981299998006,932.9984999931185,True,False
19,2,258.0162648999976,star,"(-480.0, 270.0)",0,2348.3194000000367,949.3365999951493,True,False
19,2,258.034673999995,star,"(-480.0, 270.0)",0,2366.728499997407,967.7456999925198,True,False
19,2,258.0503949999984,star,"(-480.0, 270.0)",0,2382.449500000803,983.4666999959154,True,False
19,2,258.08261520000815,star,"(-480.0, 270.0)",0,2414.6697000105632,1015.6869000056759,True,False
19,2,258.1009364000056,star,"(-480.0, 270.0)",0,2432.990900008008,1034.0081000031205,True,False
19,2,258.115930800006,star,"(-480.0, 270.0)",0,2447.9853000084404,1049.002500003553,True,False
19,2,258.1334404999943,star,"(-480.0, 270.0)",0,2465.4949999967357,1066.5121999918483,True,False
19,2,258.1482263000071,star,"(-480.0, 270.0)",0,2480.2808000094956,1081.2980000046082,True,False
19,2,258.1647651999956,star,"(-480.0, 270.0)",0,2496.8196999980137,1097.8368999931263,True,False
19,2,258.18131800000265,star,"(-480.0, 270.0)",0,2513.3725000050617,1114.3897000001743,True,False
19,2,258.19761459999427,star,"(-480.0, 270.0)",0,2529.6690999966813,1130.686299991794,True,False
19,2,258.2129137000011,star,"(-480.0, 270.0)",0,2544.9682000034954,1145.985399998608,True,False
19,2,258.22944789999747,star,"(-480.0, 270.0)",0,2561.502399999881,1162.5195999949938,True,False
19,2,258.2475393000059,star,"(-480.0, 270.0)",0,2579.593800008297,1180.6110000034096,True,False
19,2,258.2643415000057,star,"(-480.0, 270.0)",0,2596.396000008099,1197.4132000032114,True,False
19,2,258.2804510999995,star,"(-480.0, 270.0)",0,2612.505600001896,1213.5227999970084,True,False
19,2,258.2978141000058,star,"(-480.0, 270.0)",0,2629.8686000081943,1230.885800003307,True,False
19,2,258.31424390000757,star,"(-480.0, 270.0)",0,2646.2984000099823,1247.315600005095,True,False
19,2,258.3324858999986,star,"(-480.0, 270.0)",0,2664.5404000009876,1265.5575999961002,True,False
19,2,258.34946579999814,star,"(-480.0, 270.0)",0,2681.5203000005567,1282.5374999956694,True,False
19,2,258.3665452999994,star,"(-480.0, 270.0)",0,2698.59980000183,1299.6169999969425,True,False
19,2,258.3826485000027,star,"(-480.0, 270.0)",0,2714.703000005102,1315.7202000002144,True,False
19,2,258.399159099994,star,"(-480.0, 270.0)",0,2731.2135999964084,1332.230799991521,True,False
19,2,258.4131600999972,star,"(-480.0, 270.0)",0,2745.214599999599,1346.2317999947118,True,False
19,2,258.4316276000027,star,"(-480.0, 270.0)",0,2763.6821000050986,1364.6993000002112,True,False
19,2,258.44598340000084,star,"(-480.0, 270.0)",0,2778.0379000032553,1379.055099998368,True,False
19,2,258.46291709999787,star,"(-480.0, 270.0)",0,2794.971600000281,1395.9887999953935,True,False
19,2,258.4773881000001,star,"(-480.0, 270.0)",0,2809.4426000025123,1410.459799997625,True,False
19,2,258.4969332000037,star,"(-480.0, 270.0)",0,2828.9877000061097,1430.0049000012223,True,False
19,2,258.5121342000057,star,"(-480.0, 270.0)",0,2844.1887000080897,1445.2059000032023,True,False
19,2,258.53522930000327,star,"(-480.0, 270.0)",0,2867.28380000568,1468.3010000007926,True,False
19,2,258.54926030000206,star,"(-480.0, 270.0)",0,2881.314800004475,1482.3319999995874,True,False
19,2,258.56457420000515,star,"(-480.0, 270.0)",0,2896.628700007568,1497.6459000026807,True,False
19,2,258.58044849999715,star,"(-480.0, 270.0)",0,2912.5029999995604,1513.520199994673,True,False
19,2,258.59735749999527,star,"(-480.0, 270.0)",0,2929.411999997683,1530.4291999927955,True,False
19,2,258.6144980999961,star,"(-480.0, 270.0)",0,2946.5525999985402,1547.5697999936529,True,False
19,2,258.63169379999454,star,"(-480.0, 270.0)",0,2963.7482999969507,1564.7654999920633,True,False
19,2,258.64760369999567,star,"(-480.0, 270.0)",0,2979.6581999980845,1580.675399993197,True,False
19,2,258.6654547000071,star,"(-480.0, 270.0)",0,2997.5092000095174,1598.52640000463,True,False
19,2,258.6796919000044,star,"(-480.0, 270.0)",0,3011.746400006814,1612.7636000019265,True,False
19,2,258.69570330000715,star,"(-480.0, 270.0)",0,3027.7578000095673,1628.77500000468,True,False
19,2,258.71141820000776,star,"(-480.0, 270.0)",0,3043.4727000101702,1644.4899000052828,True,False
19,2,258.72939130000304,star,"(-480.0, 270.0)",0,3061.4458000054583,1662.463000000571,True,False
19,2,258.7467797999998,star,"(-480.0, 270.0)",0,3078.8343000021996,1679.8514999973122,True,False
19,2,258.76329269999405,star,"(-480.0, 270.0)",0,3095.3471999964677,1696.3643999915803,True,False
19,2,258.77908029999526,star,"(-480.0, 270.0)",0,3111.1347999976715,1712.151999992784,True,False
19,2,258.79861290000554,star,"(-480.0, 270.0)",0,3130.667400007951,1731.6846000030637,True,False
19,2,258.815552,star,"(-480.0, 270.0)",0,3147.606500002439,1748.6236999975517,True,False
19,2,258.8318256000057,star,"(-480.0, 270.0)",0,3163.8801000081003,1764.8973000032129,True,False
19,2,258.84722510000574,star,"(-480.0, 270.0)",0,3179.279600008158,1780.2968000032706,True,False
21,1,280.12540530000115,circle,"(-480.0, -270.0)",263.6458000051789,263.6681000003591,263.6681000003591,False,True
21,2,280.3934573000006,circle,"(-480.0, -270.0)",263.8881000020774,531.7200999998022,268.05199999944307,True,False
21,2,280.41096090000065,circle,"(-480.0, -270.0)",0,549.2236999998568,285.55559999949764,True,False
21,2,280.4265848000068,circle,"(-480.0, -270.0)",0,564.8476000060327,301.1795000056736,True,False
21,2,280.44047610000416,circle,"(-480.0, -270.0)",0,578.7389000033727,315.0708000030136,True,False
21,2,280.45991839999624,circle,"(-480.0, -270.0)",0,598.1811999954516,334.5130999950925,True,False
21,2,280.4756230000057,circle,"(-480.0, -270.0)",0,613.8858000049368,350.21770000457764,True,False
21,2,280.4922019000078,circle,"(-480.0, -270.0)",0,630.4647000069963,366.79660000663716,True,False
21,2,280.5099027999968,circle,"(-480.0, -270.0)",0,648.1655999959912,384.4974999956321,True,False
21,2,280.5272391000035,circle,"(-480.0, -270.0)",0,665.5019000027096,401.8338000023505,True,False
21,2,280.54242630000226,circle,"(-480.0, -270.0)",0,680.689100001473,417.02100000111386,True,False
21,2,280.5587063999992,circle,"(-480.0, -270.0)",0,696.9691999984207,433.30109999806155,True,False
21,2,280.5742128999991,circle,"(-480.0, -270.0)",0,712.4756999983219,448.8075999979628,True,False
21,2,280.59352280000167,circle,"(-480.0, -270.0)",0,731.785600000876,468.1175000005169,True,False
21,2,280.6080709999951,circle,"(-480.0, -270.0)",0,746.3337999943178,482.6656999939587,True,False
21,2,280.6261879999947,circle,"(-480.0, -270.0)",0,764.4507999939378,500.7826999935787,True,False
21,2,280.6464272000012,circle,"(-480.0, -270.0)",0,784.6900000004098,521.0219000000507,True,False
21,2,280.6633909999946,circle,"(-480.0, -270.0)",0,801.6537999938009,537.9856999934418,True,False
21,2,280.69460109999636,circle,"(-480.0, -270.0)",0,832.8638999955729,569.1957999952137,True,False
21,2,280.7119117999973,circle,"(-480.0, -270.0)",0,850.1745999965351,586.506499996176,True,False
21,2,280.74069799999415,circle,"(-480.0, -270.0)",0,878.9607999933651,615.292699993006,True,False
21,2,280.7585465000011,circle,"(-480.0, -270.0)",0,896.8093000003137,633.1411999999546,True,False
21,2,280.7733064000058,circle,"(-480.0, -270.0)",0,911.569200005033,647.9011000046739,True,False
21,2,280.7934266999946,circle,"(-480.0, -270.0)",0,931.6894999938086,668.0213999934494,True,False
21,2,280.80838820000645,circle,"(-480.0, -270.0)",0,946.6510000056587,682.9829000052996,True,False
21,2,280.82595139999466,circle,"(-480.0, -270.0)",0,964.2141999938758,700.5460999935167,True,False
21,2,280.8418812000018,circle,"(-480.0, -270.0)",0,980.1440000010189,716.4759000006597,True,False
21,2,280.85936099999526,circle,"(-480.0, -270.0)",0,997.6237999944715,733.9556999941124,True,False
21,2,280.8742259999999,circle,"(-480.0, -270.0)",0,1012.4887999991188,748.8206999987597,True,False
21,2,280.8931104000076,circle,"(-480.0, -270.0)",0,1031.373200006783,767.7051000064239,True,False
21,2,280.90728850000596,circle,"(-480.0, -270.0)",0,1045.5513000051724,781.8832000048133,True,False
21,2,280.92562209999596,circle,"(-480.0, -270.0)",0,1063.8848999951733,800.2167999948142,True,False
21,2,280.94159760000184,circle,"(-480.0, -270.0)",0,1079.8604000010528,816.1923000006936,True,False
21,2,280.9591223000025,circle,"(-480.0, -270.0)",0,1097.385100001702,833.717000001343,True,False
21,2,280.9748441999982,circle,"(-480.0, -270.0)",0,1113.1069999973988,849.4388999970397,True,False
21,2,280.99554329999955,circle,"(-480.0, -270.0)",0,1133.8060999987647,870.1379999984056,True,False
21,2,281.0098016999982,circle,"(-480.0, -270.0)",0,1148.0644999974174,884.3963999970583,True,False
21,2,281.02661319999606,circle,"(-480.0, -270.0)",0,1164.8759999952745,901.2078999949154,True,False
21,2,281.0411606999987,circle,"(-480.0, -270.0)",0,1179.423499997938,915.7553999975789,True,False
21,2,281.05953959999897,circle,"(-480.0, -270.0)",0,1197.8023999981815,934.1342999978224,True,False
21,2,281.07588810000743,circle,"(-480.0, -270.0)",0,1214.1509000066435,950.4828000062844,True,False
21,2,281.09196689999953,circle,"(-480.0, -270.0)",0,1230.2296999987448,966.5615999983856,True,False
21,2,281.106806900003,circle,"(-480.0, -270.0)",0,1245.0697000022046,981.4016000018455,True,False
21,2,281.1231709999993,circle,"(-480.0, -270.0)",0,1261.4337999984855,997.7656999981264,True,False
21,2,281.14060329999484,circle,"(-480.0, -270.0)",0,1278.8660999940475,1015.1979999936884,True,False
21,2,281.15680630000134,circle,"(-480.0, -270.0)",0,1295.0691000005463,1031.4010000001872,True,False
21,2,281.1745288999955,circle,"(-480.0, -270.0)",0,1312.7916999947047,1049.1235999943456,True,False
21,2,281.19164059999457,circle,"(-480.0, -270.0)",0,1329.903399993782,1066.2352999934228,True,False
21,2,281.20972800000163,circle,"(-480.0, -270.0)",0,1347.9908000008436,1084.3227000004845,True,False
21,2,281.22765990000335,circle,"(-480.0, -270.0)",0,1365.9227000025567,1102.2546000021975,True,False
21,2,281.24631000000227,circle,"(-480.0, -270.0)",0,1384.5728000014788,1120.9047000011196,True,False
21,2,281.2735615999991,circle,"(-480.0, -270.0)",0,1411.8243999982951,1148.156299997936,True,False
21,2,281.29314989999693,circle,"(-480.0, -270.0)",0,1431.4126999961445,1167.7445999957854,True,False
21,2,281.3075663000054,circle,"(-480.0, -270.0)",0,1445.8291000046302,1182.161000004271,True,False
21,2,281.3270072000014,circle,"(-480.0, -270.0)",0,1465.2700000006007,1201.6019000002416,True,False
21,2,281.34086039999966,circle,"(-480.0, -270.0)",0,1479.1231999988668,1215.4550999985076,True,False
21,2,281.3588579000061,circle,"(-480.0, -270.0)",0,1497.1207000053255,1233.4526000049664,True,False
21,2,281.3750934999989,circle,"(-480.0, -270.0)",0,1513.3562999981223,1249.6881999977631,True,False
21,2,281.3926722000033,circle,"(-480.0, -270.0)",0,1530.9350000025006,1267.2669000021415,True,False
21,2,281.4071743999957,circle,"(-480.0, -270.0)",0,1545.4371999949217,1281.7690999945626,True,False
21,2,281.4253721999994,circle,"(-480.0, -270.0)",0,1563.6349999986123,1299.9668999982532,True,False
21,2,281.44140219999827,circle,"(-480.0, -270.0)",0,1579.6649999974761,1315.996899997117,True,False
21,2,281.4595091000083,circle,"(-480.0, -270.0)",0,1597.7719000075012,1334.1038000071421,True,False
21,2,281.4750742000033,circle,"(-480.0, -270.0)",0,1613.3370000025025,1349.6689000021433,True,False
21,2,281.49261359999946,circle,"(-480.0, -270.0)",0,1630.8763999986695,1367.2082999983104,True,False
21,2,281.50719099999696,circle,"(-480.0, -270.0)",0,1645.4537999961758,1381.7856999958167,True,False
21,2,281.5255523999949,circle,"(-480.0, -270.0)",0,1663.8151999941329,1400.1470999937737,True,False
21,2,281.54238420000183,circle,"(-480.0, -270.0)",0,1680.647000001045,1416.9789000006858,True,False
21,2,281.5594925000041,circle,"(-480.0, -270.0)",0,1697.7553000033367,1434.0872000029776,True,False
21,2,281.57627600000706,circle,"(-480.0, -270.0)",0,1714.5388000062667,1450.8707000059076,True,False
21,2,281.5931624000077,circle,"(-480.0, -270.0)",0,1731.4252000069246,1467.7571000065655,True,False
21,2,281.60773699999845,circle,"(-480.0, -270.0)",0,1745.9997999976622,1482.331699997303,True,False
21,2,281.62575659999857,circle,"(-480.0, -270.0)",0,1764.0193999977782,1500.3512999974191,True,False
21,2,281.6413834999985,circle,"(-480.0, -270.0)",0,1779.6462999976939,1515.9781999973347,True,False
21,2,281.66075389999605,circle,"(-480.0, -270.0)",0,1799.0166999952635,1535.3485999949044,True,False
21,2,281.6792240000068,circle,"(-480.0, -270.0)",0,1817.4868000060087,1553.8187000056496,True,False
21,2,281.69683670000813,circle,"(-480.0, -270.0)",0,1835.0995000073453,1571.4314000069862,True,False
21,2,281.7263207000069,circle,"(-480.0, -270.0)",0,1864.5835000061197,1600.9154000057606,True,False
21,2,281.74013210000703,circle,"(-480.0, -270.0)",0,1878.394900006242,1614.726800005883,True,False
21,2,281.758753800008,circle,"(-480.0, -270.0)",0,1897.0166000071913,1633.3485000068322,True,False
21,2,281.77546509999956,circle,"(-480.0, -270.0)",0,1913.7278999987757,1650.0597999984166,True,False
21,2,281.79247870000836,circle,"(-480.0, -270.0)",0,1930.7415000075707,1667.0734000072116,True,False
21,2,281.8092803000036,circle,"(-480.0, -270.0)",0,1947.5431000028038,1683.8750000024447,True,False
21,2,281.82606289999967,circle,"(-480.0, -270.0)",0,1964.3256999988807,1700.6575999985216,True,False
21,2,281.8406813000038,circle,"(-480.0, -270.0)",0,1978.944100002991,1715.276000002632,True,False
21,2,281.86156970000593,circle,"(-480.0, -270.0)",0,1999.832500005141,1736.1644000047818,True,False
21,2,281.8794182999991,circle,"(-480.0, -270.0)",0,2017.681099998299,1754.01299999794,True,False
21,2,281.8955997000012,circle,"(-480.0, -270.0)",0,2033.8625000003958,1770.1944000000367,True,False
