trial_num,selection_num,timestamp,shape,position,fixation_duration_ms,rt_from_trial_start_ms,rt_from_previous_selection_ms,queued_selection,was_executed
13,1,2250.649015700008,cross,"(480.0, -270.0)",251.13580000470392,3894.1663000150584,3894.1663000150584,False,True
13,2,2250.9126530000067,cross,"(480.0, -270.0)",261.2849000142887,4157.803600013722,263.63729999866337,True,False
13,2,2250.9344832999923,cross,"(480.0, -270.0)",0,4179.633899999317,285.4675999842584,True,False
13,2,2250.947882699984,cross,"(480.0, -270.0)",0,4193.03329999093,298.8669999758713,True,False
13,2,2250.966439299984,cross,"(480.0, -270.0)",0,4211.5898999909405,317.4235999758821,True,False
13,2,2250.9833116999944,cross,"(480.0, -270.0)",0,4228.462300001411,334.2959999863524,True,False
13,2,2250.998941900005,cross,"(480.0, -270.0)",0,4244.092500011902,349.92619999684393,True,False
13,2,2251.0144294000056,cross,"(480.0, -270.0)",0,4259.580000012647,365.413699997589,True,False
13,2,2251.032237999985,cross,"(480.0, -270.0)",0,4277.388599992264,383.2222999772057,True,False
13,2,2251.047909899993,cross,"(480.0, -270.0)",0,4293.060500000138,398.89419998507947,True,False
13,2,2251.065535300004,cross,"(480.0, -270.0)",0,4310.685900010867,416.5195999958087,True,False
13,2,2251.0814114999957,cross,"(480.0, -270.0)",0,4326.562100002775,432.3957999877166,True,False
13,2,2251.099028800003,cross,"(480.0, -270.0)",0,4344.179400010034,450.0130999949761,True,False
13,2,2251.1145759999927,cross,"(480.0, -270.0)",0,4359.7265999997035,465.5602999846451,True,False
13,2,2251.1323162000044,cross,"(480.0, -270.0)",0,4377.466800011462,483.30049999640323,True,False
13,2,2251.1478608000034,cross,"(480.0, -270.0)",0,4393.011400010437,498.8450999953784,True,False
13,2,2251.165509899991,cross,"(480.0, -270.0)",0,4410.660499997903,516.4941999828443,True,False
13,2,2251.1808514999866,cross,"(480.0, -270.0)",0,4426.002099993639,531.8357999785803,True,False
13,2,2251.1986883000063,cross,"(480.0, -270.0)",0,4443.838900013361,549.6725999983028,True,False
13,2,2251.2144614999997,cross,"(480.0, -270.0)",0,4459.61210000678,565.4457999917213,True,False
13,2,2251.2320180000097,cross,"(480.0, -270.0)",0,4477.168600016739,583.0023000016809,True,False
13,2,2251.2477041000093,cross,"(480.0, -270.0)",0,4492.8547000163235,598.6884000012651,True,False
13,2,2251.2657689999905,cross,"(480.0, -270.0)",0,4510.919599997578,616.7532999825198,True,False
13,2,2251.281208100001,cross,"(480.0, -270.0)",0,4526.358700008132,632.1923999930732,True,False
13,2,2251.298804899998,cross,"(480.0, -270.0)",0,4543.955500004813,649.7891999897547,True,False
13,2,2251.314295899996,cross,"(480.0, -270.0)",0,4559.446500003105,665.2801999880467,True,False
13,2,2251.332090699987,cross,"(480.0, -270.0)",0,4577.241299994057,683.0749999789987,True,False
13,2,2251.3478752000083,cross,"(480.0, -270.0)",0,4593.025800015312,698.8595000002533,True,False
13,2,2251.365571800008,cross,"(480.0, -270.0)",0,4610.72240001522,716.5561000001617,True,False
13,2,2251.3809727999906,cross,"(480.0, -270.0)",0,4626.123399997596,731.9570999825373,True,False
13,2,2251.398802200012,cross,"(480.0, -270.0)",0,4643.9528000191785,749.7865000041202,True,False
13,2,2251.414289999986,cross,"(480.0, -270.0)",0,4659.440599993104,765.2742999780457,True,False
13,2,2251.4322227000084,cross,"(480.0, -270.0)",0,4677.373300015461,783.2070000004023,True,False
13,2,2251.4477448000107,cross,"(480.0, -270.0)",0,4692.895400017733,798.7291000026744,True,False
13,2,2251.4653076000104,cross,"(480.0, -270.0)",0,4710.458200017456,816.2919000023976,True,False
13,2,2251.4812081999844,cross,"(480.0, -270.0)",0,4726.358799991431,832.1924999763723,True,False
13,2,2251.4993457999954,cross,"(480.0, -270.0)",0,4744.49640000239,850.3300999873318,True,False
13,2,2251.5144336000085,cross,"(480.0, -270.0)",0,4759.584200015524,865.417900000466,True,False
13,2,2251.531854800007,cross,"(480.0, -270.0)",0,4777.005400013877,882.8390999988187,True,False
13,2,2251.547779699991,cross,"(480.0, -270.0)",0,4792.930299998261,898.7639999832027,True,False
13,2,2251.565339599998,cross,"(480.0, -270.0)",0,4810.490200005006,916.3238999899477,True,False
13,2,2251.581264699984,cross,"(480.0, -270.0)",0,4826.415299990913,932.2489999758545,True,False
13,2,2251.598760699999,cross,"(480.0, -270.0)",0,4843.911300005857,949.7449999907985,True,False
13,2,2251.6140841000015,cross,"(480.0, -270.0)",0,4859.234700008528,965.0683999934699,True,False
13,2,2251.6319764000073,cross,"(480.0, -270.0)",0,4877.127000014298,982.9606999992393,True,False
13,2,2251.6477854000113,cross,"(480.0, -270.0)",0,4892.936000018381,998.7697000033222,True,False
13,2,2251.6654992999975,cross,"(480.0, -270.0)",0,4910.6499000045005,1016.4835999894422,True,False
13,2,2251.6832953999983,cross,"(480.0, -270.0)",0,4928.446000005351,1034.279699990293,True,False
13,2,2251.699043300003,cross,"(480.0, -270.0)",0,4944.19390000985,1050.0275999947917,True,False
13,2,2251.7143868999847,cross,"(480.0, -270.0)",0,4959.537499991711,1065.3711999766529,True,False
13,2,2251.732328199985,cross,"(480.0, -270.0)",0,4977.478799992241,1083.3124999771826,True,False
13,2,2251.74777419999,cross,"(480.0, -270.0)",0,4992.924799997127,1098.7584999820683,True,False
13,2,2251.7655793000013,cross,"(480.0, -270.0)",0,5010.7299000083,1116.563599993242,True,False
13,2,2251.7811117999954,cross,"(480.0, -270.0)",0,5026.262400002452,1132.0960999873932,True,False
13,2,2251.7988320000004,cross,"(480.0, -270.0)",0,5043.982600007439,1149.8162999923807,True,False
13,2,2251.814394899993,cross,"(480.0, -270.0)",0,5059.54550000024,1165.379199985182,True,False
13,2,2251.8320257999876,cross,"(480.0, -270.0)",0,5077.1763999946415,1183.0100999795832,True,False
13,2,2251.8475165999844,cross,"(480.0, -270.0)",0,5092.667199991411,1198.5008999763522,True,False
13,2,2251.8653987,cross,"(480.0, -270.0)",0,5110.549300006824,1216.3829999917652,True,False
13,2,2251.8808303000114,cross,"(480.0, -270.0)",0,5125.980900018476,1231.8146000034176,True,False
13,2,2251.89860819999,cross,"(480.0, -270.0)",0,5143.758799997158,1249.5924999821,True,False
13,2,2251.9141265999933,cross,"(480.0, -270.0)",0,5159.277200000361,1265.1108999853022,True,False
13,2,2251.9318671000074,cross,"(480.0, -270.0)",0,5177.017700014403,1282.8513999993447,True,False
13,2,2251.9472773000016,cross,"(480.0, -270.0)",0,5192.427900008624,1298.261599993566,True,False
13,2,2251.965342599986,cross,"(480.0, -270.0)",0,5210.493199992925,1316.3268999778666,True,False
13,2,2251.980780599988,cross,"(480.0, -270.0)",0,5225.931199995102,1331.764899980044,True,False
13,2,2251.998524399998,cross,"(480.0, -270.0)",0,5243.675000005169,1349.5086999901105,True,False
13,2,2252.0142847000097,cross,"(480.0, -270.0)",0,5259.435300016776,1365.2690000017174,True,False
13,2,2252.031905299984,cross,"(480.0, -270.0)",0,5277.055899990955,1382.889599975897,True,False
13,2,2252.0474857999943,cross,"(480.0, -270.0)",0,5292.636400001356,1398.470099986298,True,False
13,2,2252.0657243999885,cross,"(480.0, -270.0)",0,5310.874999995576,1416.7086999805178,True,False
13,2,2252.0809312000056,cross,"(480.0, -270.0)",0,5326.081800012616,1431.915499997558,True,False
13,2,2252.098793399986,cross,"(480.0, -270.0)",0,5343.943999992916,1449.777699977858,True,False
13,2,2252.11417310001,cross,"(480.0, -270.0)",0,5359.32370001683,1465.1574000017717,True,False
13,2,2252.1318088000116,cross,"(480.0, -270.0)",0,5376.959400018677,1482.7931000036187,True,False
13,2,2252.1475715000124,cross,"(480.0, -270.0)",0,5392.722100019455,1498.5558000043966,True,False
13,2,2252.1654079,cross,"(480.0, -270.0)",0,5410.558500007028,1516.3921999919694,True,False
13,2,2252.1808245999855,cross,"(480.0, -270.0)",0,5425.975199992536,1531.8088999774773,True,False
13,2,2252.1986250999907,cross,"(480.0, -270.0)",0,5443.775699997786,1549.609399982728,True,False
13,2,2252.214335800003,cross,"(480.0, -270.0)",0,5459.486400010064,1565.3200999950059,True,False
13,2,2252.2320544999966,cross,"(480.0, -270.0)",0,5477.20510000363,1583.0387999885716,True,False
13,2,2252.2474292000115,cross,"(480.0, -270.0)",0,5492.579800018575,1598.4135000035167,True,False
13,2,2252.265225499985,cross,"(480.0, -270.0)",0,5510.376099991845,1616.2097999767866,True,False
13,2,2252.280843799992,cross,"(480.0, -270.0)",0,5525.9943999990355,1631.8280999839772,True,False
13,2,2252.2986803000094,cross,"(480.0, -270.0)",0,5543.830900016474,1649.6646000014152,True,False
13,2,2252.314145399985,cross,"(480.0, -270.0)",0,5559.295999992173,1665.1296999771148,True,False
13,2,2252.332174799987,cross,"(480.0, -270.0)",0,5577.325399994152,1683.1590999790933,True,False
13,2,2252.347410999995,cross,"(480.0, -270.0)",0,5592.561600002227,1698.395299987169,True,False
13,2,2252.3651645999926,cross,"(480.0, -270.0)",0,5610.315199999604,1716.148899984546,True,False
13,2,2252.3808295000053,cross,"(480.0, -270.0)",0,5625.980100012384,1731.813799997326,True,False
13,2,2252.398598700005,cross,"(480.0, -270.0)",0,5643.749300012132,1749.5829999970738,True,False
13,2,2252.4177743000037,cross,"(480.0, -270.0)",0,5662.924900010694,1768.7585999956354,True,False
13,2,2252.432091499999,cross,"(480.0, -270.0)",0,5677.242100005969,1783.075799990911,True,False
14,1,2261.3292493000044,star,"(-480.0, 270.0)",251.00260000908747,1629.8539999988861,1629.8539999988861,False,True
14,2,2261.5960239999986,star,"(-480.0, 270.0)",264.2811000114307,1896.6286999930162,266.77469999413006,True,False
14,2,2261.6142809999874,star,"(-480.0, 270.0)",0,1914.8856999818236,285.0316999829374,True,False
14,2,2261.6302089999954,star,"(-480.0, 270.0)",0,1930.8136999898124,300.9596999909263,True,False
14,2,2261.644920999999,star,"(-480.0, 270.0)",0,1945.5256999935955,315.67169999470934,True,False
14,2,2261.662378400011,star,"(-480.0, 270.0)",0,1962.9831000056583,333.1291000067722,True,False
14,2,2261.678745000012,star,"(-480.0, 270.0)",0,1979.3497000064235,349.4957000075374,True,False
14,2,2261.695860000007,star,"(-480.0, 270.0)",0,1996.4647000015248,366.6107000026386,True,False
14,2,2261.711787899985,star,"(-480.0, 270.0)",0,2012.3925999796484,382.5385999807622,True,False
14,2,2261.7293860999926,star,"(-480.0, 270.0)",0,2029.9907999869902,400.13679998810403,True,False
14,2,2261.7450357000052,star,"(-480.0, 270.0)",0,2045.6403999996837,415.7864000007976,True,False
14,2,2261.7630612000066,star,"(-480.0, 270.0)",0,2063.6659000010695,433.8119000021834,True,False
14,2,2261.7788031999953,star,"(-480.0, 270.0)",0,2079.4078999897465,449.5538999908604,True,False
14,2,2261.7962303000095,star,"(-480.0, 270.0)",0,2096.835000003921,466.98100000503473,True,False
14,2,2261.812223199988,star,"(-480.0, 270.0)",0,2112.8278999822214,482.9738999833353,True,False
14,2,2261.8293776999926,star,"(-480.0, 270.0)",0,2129.982399987057,500.1283999881707,True,False
14,2,2261.8449008000025,star,"(-480.0, 270.0)",0,2145.5054999969434,515.6514999980573,True,False
14,2,2261.8628005000064,star,"(-480.0, 270.0)",0,2163.4052000008523,533.5512000019662,True,False
14,2,2261.8784688999876,star,"(-480.0, 270.0)",0,2179.0735999820754,549.2195999831893,True,False
14,2,2261.89595060001,star,"(-480.0, 270.0)",0,2196.5553000045475,566.7013000056613,True,False
14,2,2261.9116005999967,star,"(-480.0, 270.0)",0,2212.205299991183,582.3512999922968,True,False
14,2,2261.929775700002,star,"(-480.0, 270.0)",0,2230.3803999966476,600.5263999977615,True,False
14,2,2261.945272299985,star,"(-480.0, 270.0)",0,2245.876999979373,616.0229999804869,True,False
14,2,2261.963055900007,star,"(-480.0, 270.0)",0,2263.660600001458,633.8066000025719,True,False
14,2,2261.9790034999896,star,"(-480.0, 270.0)",0,2279.608199984068,649.7541999851819,True,False
14,2,2261.996278000006,star,"(-480.0, 270.0)",0,2296.882700000424,667.0287000015378,True,False
14,2,2262.0118804000085,star,"(-480.0, 270.0)",0,2312.4851000029594,682.6311000040732,True,False
14,2,2262.029980499996,star,"(-480.0, 270.0)",0,2330.58519999031,700.7311999914236,True,False
14,2,2262.0451012999984,star,"(-480.0, 270.0)",0,2345.705999992788,715.8519999939017,True,False
14,2,2262.0630697000015,star,"(-480.0, 270.0)",0,2363.6743999959435,733.8203999970574,True,False
14,2,2262.07842060001,star,"(-480.0, 270.0)",0,2379.0253000042867,749.1713000054006,True,False
14,2,2262.0960878999904,star,"(-480.0, 270.0)",0,2396.692599984817,766.8385999859311,True,False
14,2,2262.1113496999897,star,"(-480.0, 270.0)",0,2411.954399984097,782.100399985211,True,False
14,2,2262.1292508000042,star,"(-480.0, 270.0)",0,2429.8554999986663,800.0014999997802,True,False
14,2,2262.1446306,star,"(-480.0, 270.0)",0,2445.2352999942377,815.3812999953516,True,False
14,2,2262.1627018,star,"(-480.0, 270.0)",0,2463.30649999436,833.4524999954738,True,False
14,2,2262.1776704000076,star,"(-480.0, 270.0)",0,2478.2751000020653,848.4211000031792,True,False
14,2,2262.195758899994,star,"(-480.0, 270.0)",0,2496.363599988399,866.5095999895129,True,False
14,2,2262.2116499000113,star,"(-480.0, 270.0)",0,2512.25460000569,882.4006000068039,True,False
14,2,2262.229625500011,star,"(-480.0, 270.0)",0,2530.2302000054624,900.3762000065763,True,False
14,2,2262.2447155999835,star,"(-480.0, 270.0)",0,2545.3202999779023,915.4662999790162,True,False
14,2,2262.262886499986,star,"(-480.0, 270.0)",0,2563.49119998049,933.6371999816038,True,False
14,2,2262.278446799988,star,"(-480.0, 270.0)",0,2579.0514999825973,949.1974999837112,True,False
14,2,2262.2960856999853,star,"(-480.0, 270.0)",0,2596.690399979707,966.8363999808207,True,False
14,2,2262.311566999997,star,"(-480.0, 270.0)",0,2612.1716999914497,982.3176999925636,True,False
14,2,2262.3293267999834,star,"(-480.0, 270.0)",0,2629.931499977829,1000.0774999789428,True,False
14,2,2262.3450968000107,star,"(-480.0, 270.0)",0,2645.7015000050887,1015.8475000062026,True,False
14,2,2262.363752400008,star,"(-480.0, 270.0)",0,2664.357100002235,1034.5031000033487,True,False
14,2,2262.376054099994,star,"(-480.0, 270.0)",0,2676.6587999882177,1046.8047999893315,True,False
14,2,2262.4011421999894,star,"(-480.0, 270.0)",0,2701.7468999838457,1071.8928999849595,True,False
14,2,2262.4262753000075,star,"(-480.0, 270.0)",0,2726.8800000019837,1097.0260000030976,True,False
14,2,2262.4492331999936,star,"(-480.0, 270.0)",0,2749.8378999880515,1119.9838999891654,True,False
14,2,2262.4795752000064,star,"(-480.0, 270.0)",0,2780.179900000803,1150.325900001917,True,False
14,2,2262.518447999988,star,"(-480.0, 270.0)",0,2819.0526999824215,1189.1986999835353,True,False
14,2,2262.5359303999867,star,"(-480.0, 270.0)",0,2836.53509998112,1206.6810999822337,True,False
14,2,2262.563433400006,star,"(-480.0, 270.0)",0,2864.038100000471,1234.1841000015847,True,False
14,2,2262.5787793000054,star,"(-480.0, 270.0)",0,2879.3839999998454,1249.5300000009593,True,False
14,2,2262.5964814999897,star,"(-480.0, 270.0)",0,2897.0861999841873,1267.2321999853011,True,False
14,2,2262.612165300001,star,"(-480.0, 270.0)",0,2912.769999995362,1282.9159999964759,True,False
14,2,2262.629692199989,star,"(-480.0, 270.0)",0,2930.2968999836594,1300.4428999847732,True,False
14,2,2262.6453461000056,star,"(-480.0, 270.0)",0,2945.9507999999914,1316.0968000011053,True,False
14,2,2262.663644199987,star,"(-480.0, 270.0)",0,2964.2488999816123,1334.3948999827262,True,False
14,2,2262.679025999998,star,"(-480.0, 270.0)",0,2979.6306999924127,1349.7766999935266,True,False
14,2,2262.696067299985,star,"(-480.0, 270.0)",0,2996.6719999792986,1366.8179999804124,True,False
14,2,2262.7117298000085,star,"(-480.0, 270.0)",0,3012.3345000029076,1382.4805000040215,True,False
14,2,2262.7295227999857,star,"(-480.0, 270.0)",0,3030.1274999801535,1400.2734999812674,True,False
14,2,2262.744980599993,star,"(-480.0, 270.0)",0,3045.5852999875788,1415.7312999886926,True,False
14,2,2262.7634383999975,star,"(-480.0, 270.0)",0,3064.043099991977,1434.189099993091,True,False
14,2,2262.778486299998,star,"(-480.0, 270.0)",0,3079.0909999923315,1449.2369999934454,True,False
14,2,2262.795370500011,star,"(-480.0, 270.0)",0,3095.9752000053413,1466.1212000064552,True,False
14,2,2262.811557500012,star,"(-480.0, 270.0)",0,3112.1622000064235,1482.3082000075374,True,False
14,2,2262.829143399984,star,"(-480.0, 270.0)",0,3129.7480999783147,1499.8940999794286,True,False
14,2,2262.8447809999925,star,"(-480.0, 270.0)",0,3145.385699986946,1515.5316999880597,True,False
14,2,2262.862412699993,star,"(-480.0, 270.0)",0,3163.0173999874387,1533.1633999885526,True,False
14,2,2262.879063600005,star,"(-480.0, 270.0)",0,3179.668299999321,1549.8143000004347,True,False
14,2,2262.8962829000084,star,"(-480.0, 270.0)",0,3196.8876000028104,1567.0336000039242,True,False
14,2,2262.9121603000094,star,"(-480.0, 270.0)",0,3212.7650000038557,1582.9110000049695,True,False
14,2,2262.9299218000087,star,"(-480.0, 270.0)",0,3230.5265000031795,1600.6725000042934,True,False
14,2,2262.9454586000065,star,"(-480.0, 270.0)",0,3246.0633000009693,1616.2093000020832,True,False
14,2,2262.9628847999847,star,"(-480.0, 270.0)",0,3263.489499979187,1633.6354999803007,True,False
14,2,2262.9785218999896,star,"(-480.0, 270.0)",0,3279.1265999840107,1649.2725999851245,True,False
14,2,2262.995851799991,star,"(-480.0, 270.0)",0,3296.456499985652,1666.602499986766,True,False
14,2,2263.0127121999976,star,"(-480.0, 270.0)",0,3313.31689999206,1683.4628999931738,True,False
14,2,2263.0300183999934,star,"(-480.0, 270.0)",0,3330.6230999878608,1700.7690999889746,True,False
14,2,2263.045671400003,star,"(-480.0, 270.0)",0,3346.2760999973398,1716.4220999984536,True,False
14,2,2263.0643457999977,star,"(-480.0, 270.0)",0,3364.950499992119,1735.096499993233,True,False
14,2,2263.0791551999864,star,"(-480.0, 270.0)",0,3379.7598999808542,1749.905899981968,True,False
14,2,2263.096185500006,star,"(-480.0, 270.0)",0,3396.790200000396,1766.9362000015099,True,False
14,2,2263.112088599999,star,"(-480.0, 270.0)",0,3412.693299993407,1782.8392999945208,True,False
14,2,2263.129786800011,star,"(-480.0, 270.0)",0,3430.3915000054985,1800.5375000066124,True,False
14,2,2263.862308999989,circle,"(-480.0, -270.0)",266.6303000005428,4162.913699983619,2533.059699984733,False,True
14,3,2264.1290992999857,circle,"(-480.0, -270.0)",264.58469999488443,4429.70399998012,266.79029999650083,True,False
14,3,2264.1471945999947,circle,"(-480.0, -270.0)",0,4447.7992999891285,284.88560000550933,True,False
14,3,2264.1624496000004,circle,"(-480.0, -270.0)",0,4463.0542999948375,300.14060001121834,True,False
14,3,2264.1783641999937,circle,"(-480.0, -270.0)",0,4478.968899988104,316.0552000044845,True,False
14,3,2264.1958756000095,circle,"(-480.0, -270.0)",0,4496.4803000038955,333.5666000202764,True,False
14,3,2264.2112079999933,circle,"(-480.0, -270.0)",0,4511.812699987786,348.89900000416674,True,False
14,3,2264.229265700007,circle,"(-480.0, -270.0)",0,4529.870400001528,366.9567000179086,True,False
14,3,2264.2451784999867,circle,"(-480.0, -270.0)",0,4545.783199981088,382.86949999746867,True,False
14,3,2264.262896100001,circle,"(-480.0, -270.0)",0,4563.500799995381,400.58710001176223,True,False
14,3,2264.2793730999983,circle,"(-480.0, -270.0)",0,4579.9777999927755,417.0641000091564,True,False
14,3,2264.2985243999865,circle,"(-480.0, -270.0)",0,4599.129099980928,436.21539999730885,True,False
14,3,2264.311416499986,circle,"(-480.0, -270.0)",0,4612.021199980518,449.1074999968987,True,False
14,3,2264.3293383999844,circle,"(-480.0, -270.0)",0,4629.943099978846,467.0293999952264,True,False
14,3,2264.3449600999884,circle,"(-480.0, -270.0)",0,4645.564799982822,482.6510999992024,True,False
14,3,2264.3622770000075,circle,"(-480.0, -270.0)",0,4662.88170000189,499.9680000182707,True,False
14,3,2264.3783148000075,circle,"(-480.0, -270.0)",0,4678.919500001939,516.0058000183199,True,False
14,3,2264.3956192999904,circle,"(-480.0, -270.0)",0,4696.223999984795,533.3103000011761,True,False
14,3,2264.41172850001,circle,"(-480.0, -270.0)",0,4712.33320000465,549.4195000210311,True,False
14,3,2264.4291191000084,circle,"(-480.0, -270.0)",0,4729.72380000283,566.810100019211,True,False
14,3,2264.4447366000095,circle,"(-480.0, -270.0)",0,4745.341300003929,582.4276000203099,True,False
14,3,2264.4623953999835,circle,"(-480.0, -270.0)",0,4763.000099977944,600.0863999943249,True,False
14,3,2264.4784241000016,circle,"(-480.0, -270.0)",0,4779.028799996013,616.1151000123937,True,False
14,3,2264.496165199991,circle,"(-480.0, -270.0)",0,4796.76989998552,633.856200001901,True,False
14,3,2264.5123271000048,circle,"(-480.0, -270.0)",0,4812.931799999205,650.0181000155862,True,False
14,3,2264.530229199998,circle,"(-480.0, -270.0)",0,4830.833899992285,667.9202000086661,True,False
14,3,2264.545656900009,circle,"(-480.0, -270.0)",0,4846.261600003345,683.3479000197258,True,False
14,3,2264.5624764999957,circle,"(-480.0, -270.0)",0,4863.08119999012,700.1675000065006,True,False
14,3,2264.5784548000083,circle,"(-480.0, -270.0)",0,4879.059500002768,716.1458000191487,True,False
14,3,2264.59536810001,circle,"(-480.0, -270.0)",0,4895.972800004529,733.0591000209097,True,False
14,3,2264.611559199984,circle,"(-480.0, -270.0)",0,4912.163899978623,749.2501999950036,True,False
14,3,2264.628826900007,circle,"(-480.0, -270.0)",0,4929.431600001408,766.5179000177886,True,False
14,3,2264.64473249999,circle,"(-480.0, -270.0)",0,4945.337199984351,782.423500000732,True,False
14,3,2264.662400500005,circle,"(-480.0, -270.0)",0,4963.005199999316,800.0915000156965,True,False
14,3,2264.6782901000115,circle,"(-480.0, -270.0)",0,4978.894800005946,815.9811000223272,True,False
14,3,2264.695753100008,circle,"(-480.0, -270.0)",0,4996.357800002443,833.4441000188235,True,False
14,3,2264.71152099999,circle,"(-480.0, -270.0)",0,5012.125699984608,849.2120000009891,True,False
14,3,2264.7289824000036,circle,"(-480.0, -270.0)",0,5029.587099998025,866.6734000144061,True,False
14,3,2264.74483109999,circle,"(-480.0, -270.0)",0,5045.435799984261,882.5221000006422,True,False
14,3,2264.7622881999996,circle,"(-480.0, -270.0)",0,5062.89289999404,899.9792000104208,True,False
14,3,2264.77955430001,circle,"(-480.0, -270.0)",0,5080.159000004642,917.2453000210226,True,False
14,3,2264.7962939999998,circle,"(-480.0, -270.0)",0,5096.898699994199,933.9850000105798,True,False
14,3,2264.8119257999933,circle,"(-480.0, -270.0)",0,5112.53049998777,949.6168000041507,True,False
14,3,2264.829530499992,circle,"(-480.0, -270.0)",0,5130.135199986398,967.2215000027791,True,False
14,3,2264.845251699997,circle,"(-480.0, -270.0)",0,5145.856399991317,982.9427000076976,True,False
14,3,2264.862712900009,circle,"(-480.0, -270.0)",0,5163.317600003211,1000.4039000195917,True,False
14,3,2264.878418600012,circle,"(-480.0, -270.0)",0,5179.02330000652,1016.1096000229008,True,False
14,3,2264.894834899984,circle,"(-480.0, -270.0)",0,5195.439599978272,1032.5258999946527,True,False
14,3,2264.911346000008,circle,"(-480.0, -270.0)",0,5211.95070000249,1049.0370000188705,True,False
14,3,2264.9299915999873,circle,"(-480.0, -270.0)",0,5230.596299981698,1067.6825999980792,True,False
14,3,2264.9449989999994,circle,"(-480.0, -270.0)",0,5245.603699993808,1082.6900000101887,True,False
14,3,2264.962217399996,circle,"(-480.0, -270.0)",0,5262.822099990444,1099.908400006825,True,False
14,3,2264.978158599988,circle,"(-480.0, -270.0)",0,5278.763299982529,1115.84959999891,True,False
14,3,2264.9958624999854,circle,"(-480.0, -270.0)",0,5296.467199979816,1133.5534999961965,True,False
14,3,2265.0115285000065,circle,"(-480.0, -270.0)",0,5312.133200000972,1149.2195000173524,True,False
14,3,2265.0291309999884,circle,"(-480.0, -270.0)",0,5329.735699982848,1166.8219999992289,True,False
14,3,2265.0445461999916,circle,"(-480.0, -270.0)",0,5345.150899986038,1182.2372000024188,True,False
14,3,2265.062778899999,circle,"(-480.0, -270.0)",0,5363.38359999354,1200.4699000099208,True,False
14,3,2265.0782513000013,circle,"(-480.0, -270.0)",0,5378.8559999957215,1215.9423000121024,True,False
14,3,2265.0955070999917,circle,"(-480.0, -270.0)",0,5396.111799986102,1233.1981000024825,True,False
14,3,2265.111340000003,circle,"(-480.0, -270.0)",0,5411.944699997548,1249.0310000139289,True,False
14,3,2265.1291311999958,circle,"(-480.0, -270.0)",0,5429.735899990192,1266.8222000065725,True,False
14,3,2265.1448238999874,circle,"(-480.0, -270.0)",0,5445.428599981824,1282.5148999982048,True,False
14,3,2265.162511200004,circle,"(-480.0, -270.0)",0,5463.115899998229,1300.2022000146098,True,False
14,3,2265.1791060999967,circle,"(-480.0, -270.0)",0,5479.710799991153,1316.797100007534,True,False
14,3,2265.1956559999962,circle,"(-480.0, -270.0)",0,5496.260699990671,1333.347000007052,True,False
14,3,2265.2117466999916,circle,"(-480.0, -270.0)",0,5512.351399986073,1349.4377000024542,True,False
14,3,2265.229195299995,circle,"(-480.0, -270.0)",0,5529.799999989336,1366.8863000057172,True,False
14,3,2265.2451151999994,circle,"(-480.0, -270.0)",0,5545.7198999938555,1382.8062000102364,True,False
14,3,2265.2627401000063,circle,"(-480.0, -270.0)",0,5563.3448000007775,1400.4311000171583,True,False
14,3,2265.2789088999853,circle,"(-480.0, -270.0)",0,5579.513599979691,1416.599899996072,True,False
14,3,2265.2968055999954,circle,"(-480.0, -270.0)",0,5597.4102999898605,1434.4966000062414,True,False
14,3,2265.311965000001,circle,"(-480.0, -270.0)",0,5612.56969999522,1449.6560000116006,True,False
14,3,2265.3296366999857,circle,"(-480.0, -270.0)",0,5630.24139998015,1467.327699996531,True,False
14,3,2265.344767900009,circle,"(-480.0, -270.0)",0,5645.372600003611,1482.4589000199921,True,False
14,3,2265.361963800009,circle,"(-480.0, -270.0)",0,5662.568500003545,1499.6548000199255,True,False
14,3,2265.378438999993,circle,"(-480.0, -270.0)",0,5679.043699987233,1516.1300000036135,True,False
14,3,2265.3953523999953,circle,"(-480.0, -270.0)",0,5695.957099989755,1533.043400006136,True,False
14,3,2265.4115309999906,circle,"(-480.0, -270.0)",0,5712.135699985083,1549.222000001464,True,False
14,3,2265.429248100001,circle,"(-480.0, -270.0)",0,5729.8527999955695,1566.9391000119504,True,False
14,3,2265.4444689000084,circle,"(-480.0, -270.0)",0,5745.073600002797,1582.1599000191782,True,False
14,3,2265.4619763999945,circle,"(-480.0, -270.0)",0,5762.581099988893,1599.6674000052735,True,False
14,3,2265.477690300002,circle,"(-480.0, -270.0)",0,5778.294999996433,1615.3813000128139,True,False
14,3,2265.4957375999948,circle,"(-480.0, -270.0)",0,5796.342299989192,1633.4286000055727,True,False
14,3,2265.511987500009,circle,"(-480.0, -270.0)",0,5812.592200003564,1649.6785000199452,True,False
14,3,2265.5292905000097,circle,"(-480.0, -270.0)",0,5829.895200004103,1666.9815000204835,True,False
14,3,2265.544962099986,circle,"(-480.0, -270.0)",0,5845.566799980588,1682.653099996969,True,False
14,3,2265.562681999989,circle,"(-480.0, -270.0)",0,5863.286699983291,1700.3729999996722,True,False
14,3,2265.5787564000057,circle,"(-480.0, -270.0)",0,5879.3611000000965,1716.4474000164773,True,False
14,3,2265.5958325999964,circle,"(-480.0, -270.0)",0,5896.437299990794,1733.5236000071745,True,False
14,3,2265.6121936999843,circle,"(-480.0, -270.0)",0,5912.798399978783,1749.8846999951638,True,False
14,3,2265.629494599998,circle,"(-480.0, -270.0)",0,5930.099299992435,1767.1856000088155,True,False
14,3,2268.1941546000016,cross,"(480.0, -270.0)",266.7205999896396,8494.759299996076,4331.845600012457,False,True
14,4,2271.359641099989,t,"(480.0, 270.0)",250.4049999988638,11660.245799983386,3165.48649998731,False,True
16,1,2283.039277600008,cross,"(480.0, -270.0)",251.39990000752732,797.2367000184022,797.2367000184022,False,True
16,2,2283.30598450001,cross,"(480.0, -270.0)",264.22910002293065,1063.9436000201385,266.70690000173636,True,False
16,2,2283.32434620001,cross,"(480.0, -270.0)",0,1082.30530002038,285.06860000197776,True,False
16,2,2283.3396790999977,cross,"(480.0, -270.0)",0,1097.6382000080775,300.40149998967536,True,False
16,2,2283.3550842000113,cross,"(480.0, -270.0)",0,1113.0433000216726,315.80660000327043,True,False
16,2,2283.3728147000074,cross,"(480.0, -270.0)",0,1130.7738000177778,333.53709999937564,True,False
16,2,2283.3881748999993,cross,"(480.0, -270.0)",0,1146.1340000096243,348.8972999912221,True,False
16,2,2283.4066475,cross,"(480.0, -270.0)",0,1164.606600010302,367.36989999189973,True,False
16,2,2283.4220780000032,cross,"(480.0, -270.0)",0,1180.0371000135783,382.8003999951761,True,False
16,2,2283.439409399987,cross,"(480.0, -270.0)",0,1197.3684999975376,400.1317999791354,True,False
16,2,2283.455621800007,cross,"(480.0, -270.0)",0,1213.580900017405,416.34419999900274,True,False
16,2,2283.472511800006,cross,"(480.0, -270.0)",0,1230.4709000163712,433.234199997969,True,False
16,2,2283.4890162000083,cross,"(480.0, -270.0)",0,1246.9753000186756,449.73860000027344,True,False
16,2,2283.5063379000057,cross,"(480.0, -270.0)",0,1264.2970000160858,467.0602999976836,True,False
16,2,2283.522102499992,cross,"(480.0, -270.0)",0,1280.0616000022274,482.82489998382516,True,False
16,2,2283.539220899984,cross,"(480.0, -270.0)",0,1297.179999994114,499.94329997571185,True,False
16,2,2283.5559577000095,cross,"(480.0, -270.0)",0,1313.916800019797,516.6801000013947,True,False
16,2,2283.573760500003,cross,"(480.0, -270.0)",0,1331.7196000134572,534.482899995055,True,False
16,2,2283.5892535999883,cross,"(480.0, -270.0)",0,1347.2126999986358,549.9759999802336,True,False
16,2,2283.6061405999935,cross,"(480.0, -270.0)",0,1364.0997000038624,566.8629999854602,True,False
16,2,2283.6220890000113,cross,"(480.0, -270.0)",0,1380.0481000216678,582.8114000032656,True,False
16,2,2283.639366299991,cross,"(480.0, -270.0)",0,1397.3254000011366,600.0886999827344,True,False
16,2,2283.6555758999893,cross,"(480.0, -270.0)",0,1413.5349999996834,616.2982999812812,True,False
16,2,2283.6724135999975,cross,"(480.0, -270.0)",0,1430.3727000078652,633.135999989463,True,False
16,2,2283.6908366999996,cross,"(480.0, -270.0)",0,1448.7958000099752,651.559099991573,True,False
16,2,2283.705976199999,cross,"(480.0, -270.0)",0,1463.9353000093251,666.698599990923,True,False
16,2,2283.722015999985,cross,"(480.0, -270.0)",0,1479.9750999954995,682.7383999770973,True,False
16,2,2283.7402806000027,cross,"(480.0, -270.0)",0,1498.2397000130732,701.002999994671,True,False
16,2,2283.7553560000088,cross,"(480.0, -270.0)",0,1513.3151000190992,716.078400000697,True,False
16,2,2283.773112499999,cross,"(480.0, -270.0)",0,1531.0716000094544,733.8348999910522,True,False
16,2,2283.788847799995,cross,"(480.0, -270.0)",0,1546.806900005322,749.5701999869198,True,False
16,2,2283.8073200999934,cross,"(480.0, -270.0)",0,1565.2792000037152,768.042499985313,True,False
16,2,2283.8220411000075,cross,"(480.0, -270.0)",0,1580.000200017821,782.7634999994189,True,False
16,2,2283.839401800011,cross,"(480.0, -270.0)",0,1597.3609000211582,800.124200002756,True,False
16,2,2283.855345799995,cross,"(480.0, -270.0)",0,1613.3049000054598,816.0681999870576,True,False
16,2,2283.872482000006,cross,"(480.0, -270.0)",0,1630.4411000164691,833.204399998067,True,False
16,2,2283.88851650001,cross,"(480.0, -270.0)",0,1646.4756000204943,849.2389000020921,True,False
16,2,2283.9057189000014,cross,"(480.0, -270.0)",0,1663.6780000117142,866.441299993312,True,False
16,2,2283.921436100005,cross,"(480.0, -270.0)",0,1679.3952000152785,882.1584999968763,True,False
16,2,2283.9392617999983,cross,"(480.0, -270.0)",0,1697.2209000086877,899.9841999902856,True,False
16,2,2283.955373600009,cross,"(480.0, -270.0)",0,1713.3327000192367,916.0960000008345,True,False
16,2,2283.973208100011,cross,"(480.0, -270.0)",0,1731.1672000214458,933.9305000030436,True,False
16,2,2283.988851700007,cross,"(480.0, -270.0)",0,1746.8108000175562,949.574099999154,True,False
16,2,2284.0061275000044,cross,"(480.0, -270.0)",0,1764.086600014707,966.8498999963049,True,False
16,2,2284.0216586999886,cross,"(480.0, -270.0)",0,1779.6177999989595,982.3810999805573,True,False
16,2,2284.039270100009,cross,"(480.0, -270.0)",0,1797.2292000195011,999.992500001099,True,False
16,2,2284.062181199988,cross,"(480.0, -270.0)",0,1820.1402999984566,1022.9035999800544,True,False
16,2,2284.0756669999973,cross,"(480.0, -270.0)",0,1833.6261000076775,1036.3893999892753,True,False
16,2,2284.089323399996,cross,"(480.0, -270.0)",0,1847.2825000062585,1050.0457999878563,True,False
16,2,2284.1070241999987,cross,"(480.0, -270.0)",0,1864.983300009044,1067.7465999906417,True,False
16,2,2284.1224764999934,cross,"(480.0, -270.0)",0,1880.4356000036933,1083.198899985291,True,False
16,2,2284.140885800007,cross,"(480.0, -270.0)",0,1898.8449000171386,1101.6081999987364,True,False
16,2,2284.1540912000055,cross,"(480.0, -270.0)",0,1912.050300015835,1114.813599997433,True,False
16,2,2284.1725378999836,cross,"(480.0, -270.0)",0,1930.4969999939203,1133.2602999755181,True,False
16,2,2284.188379900006,cross,"(480.0, -270.0)",0,1946.3390000164509,1149.1022999980487,True,False
16,2,2284.2058160000015,cross,"(480.0, -270.0)",0,1963.7751000118442,1166.538399993442,True,False
16,2,2284.2219863999926,cross,"(480.0, -270.0)",0,1979.9455000029411,1182.708799984539,True,False
16,2,2284.2393261000107,cross,"(480.0, -270.0)",0,1997.2852000209969,1200.0485000025947,True,False
16,2,2284.255133800005,cross,"(480.0, -270.0)",0,2013.092900015181,1215.8561999967787,True,False
16,2,2284.272396399989,cross,"(480.0, -270.0)",0,2030.355499999132,1233.1187999807298,True,False
16,2,2284.288636799989,cross,"(480.0, -270.0)",0,2046.5958999993745,1249.3591999809723,True,False
16,2,2284.3057562999893,cross,"(480.0, -270.0)",0,2063.715399999637,1266.478699981235,True,False
16,2,2284.3216859000095,cross,"(480.0, -270.0)",0,2079.6450000198092,1282.408300001407,True,False
16,2,2284.339591099997,cross,"(480.0, -270.0)",0,2097.5502000073902,1300.313499988988,True,False
16,2,2284.355948100012,cross,"(480.0, -270.0)",0,2113.9072000223678,1316.6705000039656,True,False
16,2,2284.3733494000044,cross,"(480.0, -270.0)",0,2131.308500014711,1334.071799996309,True,False
16,2,2284.389254799986,cross,"(480.0, -270.0)",0,2147.2138999961317,1349.9771999777295,True,False
16,2,2284.4070082000108,cross,"(480.0, -270.0)",0,2164.9673000210896,1367.7306000026874,True,False
16,2,2284.4216646999994,cross,"(480.0, -270.0)",0,2179.623800009722,1382.3870999913197,True,False
16,2,2284.4392212000093,cross,"(480.0, -270.0)",0,2197.1803000196815,1399.9436000012793,True,False
16,2,2284.4552971000085,cross,"(480.0, -270.0)",0,2213.2562000188045,1416.0195000004023,True,False
16,2,2284.4726947000017,cross,"(480.0, -270.0)",0,2230.653800012078,1433.417099993676,True,False
16,2,2284.487953700009,cross,"(480.0, -270.0)",0,2245.9128000191413,1448.676100000739,True,False
16,2,2284.5065062000067,cross,"(480.0, -270.0)",0,2264.4653000170365,1467.2285999986343,True,False
16,2,2284.521055499994,cross,"(480.0, -270.0)",0,2279.0146000043023,1481.7778999859001,True,False
16,2,2284.539771999989,cross,"(480.0, -270.0)",0,2297.7310999995098,1500.4943999811076,True,False
16,2,2284.554963500006,cross,"(480.0, -270.0)",0,2312.9226000164635,1515.6858999980614,True,False
16,2,2284.5725873000047,cross,"(480.0, -270.0)",0,2330.5464000150096,1533.3096999966074,True,False
16,2,2284.5878541999846,cross,"(480.0, -270.0)",0,2345.8132999949157,1548.5765999765135,True,False
16,2,2284.6057890999946,cross,"(480.0, -270.0)",0,2363.7482000049204,1566.5114999865182,True,False
16,2,2284.622029399994,cross,"(480.0, -270.0)",0,2379.9885000044014,1582.7517999859992,True,False
16,2,2284.6389410999836,cross,"(480.0, -270.0)",0,2396.900199993979,1599.663499975577,True,False
16,2,2284.655414400011,cross,"(480.0, -270.0)",0,2413.3735000214074,1616.1368000030052,True,False
16,2,2284.6733495999943,cross,"(480.0, -270.0)",0,2431.3087000045925,1634.0719999861903,True,False
16,2,2284.688692099997,cross,"(480.0, -270.0)",0,2446.6512000071816,1649.4144999887794,True,False
16,2,2284.7063266999903,cross,"(480.0, -270.0)",0,2464.2858000006527,1667.0490999822505,True,False
16,2,2284.7226583999873,cross,"(480.0, -270.0)",0,2480.6174999976065,1683.3807999792043,True,False
16,2,2284.739512,cross,"(480.0, -270.0)",0,2497.4711000104435,1700.2343999920413,True,False
16,2,2284.754935600009,cross,"(480.0, -270.0)",0,2512.8947000193875,1715.6580000009853,True,False
16,2,2284.7724391999946,cross,"(480.0, -270.0)",0,2530.39830000489,1733.161599986488,True,False
16,2,2284.7879447999876,cross,"(480.0, -270.0)",0,2545.9038999979384,1748.6671999795362,True,False
16,2,2284.80572080001,cross,"(480.0, -270.0)",0,2563.679900020361,1766.4432000019588,True,False
16,2,2284.820982400008,cross,"(480.0, -270.0)",0,2578.941500018118,1781.7047999997158,True,False
16,2,2284.8401992,cross,"(480.0, -270.0)",0,2598.1583000102546,1800.9215999918524,True,False
19,1,2319.831285799999,circle,"(-480.0, -270.0)",267.71899999585,267.74459998705424,267.74459998705424,False,True
19,2,2320.695165299985,circle,"(-480.0, -270.0)",250.51459998940118,1131.6240999731235,863.8794999860693,True,False
19,2,2320.713804900006,circle,"(-480.0, -270.0)",0,1150.2636999939568,882.5191000069026,True,False
19,2,2320.7283805999905,circle,"(-480.0, -270.0)",0,1164.8393999785185,897.0947999914642,True,False
19,2,2320.7444527999905,circle,"(-480.0, -270.0)",0,1180.9115999785718,913.1669999915175,True,False
19,2,2320.7617128999846,circle,"(-480.0, -270.0)",0,1198.1716999725904,930.4270999855362,True,False
19,2,2320.777898900007,circle,"(-480.0, -270.0)",0,1214.357699995162,946.6131000081077,True,False
19,2,2320.7942123000103,circle,"(-480.0, -270.0)",0,1230.6710999982897,962.9265000112355,True,False
19,2,2320.8104909000103,circle,"(-480.0, -270.0)",0,1246.9496999983676,979.2051000113133,True,False
19,2,2320.827611399989,circle,"(-480.0, -270.0)",0,1264.0701999771409,996.3255999900866,True,False
19,2,2320.844478599989,circle,"(-480.0, -270.0)",0,1280.9373999771196,1013.1927999900654,True,False
19,2,2320.8608407999855,circle,"(-480.0, -270.0)",0,1297.2995999734849,1029.5549999864306,True,False
19,2,2320.8772596000053,circle,"(-480.0, -270.0)",0,1313.7183999933768,1045.9738000063226,True,False
19,2,2320.894432800007,circle,"(-480.0, -270.0)",0,1330.891599995084,1063.1470000080299,True,False
19,2,2320.9103307999903,circle,"(-480.0, -270.0)",0,1346.789599978365,1079.0449999913108,True,False
19,2,2320.926726900012,circle,"(-480.0, -270.0)",0,1363.185700000031,1095.4411000129767,True,False
19,2,2320.9447924999986,circle,"(-480.0, -270.0)",0,1381.2512999866158,1113.5066999995615,True,False
19,2,2320.9607528999913,circle,"(-480.0, -270.0)",0,1397.2116999793798,1129.4670999923255,True,False
19,2,2320.977711399988,circle,"(-480.0, -270.0)",0,1414.1701999760699,1146.4255999890156,True,False
19,2,2320.9943371999834,circle,"(-480.0, -270.0)",0,1430.7959999714512,1163.051399984397,True,False
19,2,2321.0112487000006,circle,"(-480.0, -270.0)",0,1447.70749998861,1179.9629000015557,True,False
19,2,2321.0265261000022,circle,"(-480.0, -270.0)",0,1462.9848999902606,1195.2403000032064,True,False
19,2,2321.044813699991,circle,"(-480.0, -270.0)",0,1481.2724999792408,1213.5278999921866,True,False
19,2,2321.060747499985,circle,"(-480.0, -270.0)",0,1497.206299973186,1229.4616999861319,True,False
19,2,2321.077084599994,circle,"(-480.0, -270.0)",0,1513.5433999821544,1245.7987999951001,True,False
19,2,2321.0944262999983,circle,"(-480.0, -270.0)",0,1530.8850999863353,1263.140499999281,True,False
19,2,2321.111373699998,circle,"(-480.0, -270.0)",0,1547.832499985816,1280.0878999987617,True,False
19,2,2321.1276868999994,circle,"(-480.0, -270.0)",0,1564.1456999874208,1296.4011000003666,True,False
19,2,2321.1442307000107,circle,"(-480.0, -270.0)",0,1580.689499998698,1312.9449000116438,True,False
19,2,2321.1611353000044,circle,"(-480.0, -270.0)",0,1597.5940999924205,1329.8495000053663,True,False
19,2,2321.1762925999938,circle,"(-480.0, -270.0)",0,1612.7513999817893,1345.006799994735,True,False
19,2,2321.1944076000073,circle,"(-480.0, -270.0)",0,1630.8663999952842,1363.12180000823,True,False
19,2,2321.214014500001,circle,"(-480.0, -270.0)",0,1650.473299989244,1382.7287000021897,True,False
19,2,2321.2274288999906,circle,"(-480.0, -270.0)",0,1663.887699978659,1396.1430999916047,True,False
19,2,2321.243889300007,circle,"(-480.0, -270.0)",0,1680.3480999951717,1412.6035000081174,True,False
19,2,2321.260504500009,circle,"(-480.0, -270.0)",0,1696.963299997151,1429.2187000100967,True,False
19,2,2321.2769420999975,circle,"(-480.0, -270.0)",0,1713.4008999855723,1445.656299998518,True,False
19,2,2321.2941504000046,circle,"(-480.0, -270.0)",0,1730.6091999926139,1462.8646000055596,True,False
19,2,2321.310272200004,circle,"(-480.0, -270.0)",0,1746.7309999919962,1478.986400004942,True,False
19,2,2321.3276952999877,circle,"(-480.0, -270.0)",0,1764.1540999757126,1496.4094999886584,True,False
19,2,2321.3443328999856,circle,"(-480.0, -270.0)",0,1780.7916999736335,1513.0470999865793,True,False
19,2,2321.3606972999987,circle,"(-480.0, -270.0)",0,1797.1560999867506,1529.4114999996964,True,False
19,2,2321.377238599991,circle,"(-480.0, -270.0)",0,1813.6973999789916,1545.9527999919374,True,False
19,2,2321.3944218000106,circle,"(-480.0, -270.0)",0,1830.8805999986362,1563.136000011582,True,False
19,2,2321.4102394999936,circle,"(-480.0, -270.0)",0,1846.6982999816537,1578.9536999945994,True,False
19,2,2321.427736999991,circle,"(-480.0, -270.0)",0,1864.1957999789156,1596.4511999918614,True,False
19,2,2321.4445235999883,circle,"(-480.0, -270.0)",0,1880.9823999763466,1613.2377999892924,True,False
19,2,2321.4605471999967,circle,"(-480.0, -270.0)",0,1897.0059999846853,1629.261399997631,True,False
19,2,2321.4771950999857,circle,"(-480.0, -270.0)",0,1913.653899973724,1645.9092999866698,True,False
19,2,2321.4944283000077,circle,"(-480.0, -270.0)",0,1930.8870999957435,1663.1425000086892,True,False
19,2,2321.5106908000016,circle,"(-480.0, -270.0)",0,1947.1495999896433,1679.405000002589,True,False
19,2,2321.527538299997,circle,"(-480.0, -270.0)",0,1963.9970999851357,1696.2524999980815,True,False
19,2,2321.5440581000003,circle,"(-480.0, -270.0)",0,1980.516899988288,1712.7723000012338,True,False
19,2,2321.560658000002,circle,"(-480.0, -270.0)",0,1997.1167999901809,1729.3722000031266,True,False
19,2,2321.577718399989,circle,"(-480.0, -270.0)",0,2014.1771999769844,1746.4325999899302,True,False
19,2,2321.5939863999956,circle,"(-480.0, -270.0)",0,2030.4451999836601,1762.700599996606,True,False
19,2,2321.6103210999863,circle,"(-480.0, -270.0)",0,2046.7798999743536,1779.0352999872994,True,False
19,2,2322.2102505000075,cross,"(480.0, -270.0)",250.35460002254695,2646.709299995564,2378.9647000085097,False,True
19,3,2322.4767890000076,cross,"(480.0, -270.0)",262.88160000694916,2913.247799995588,266.5385000000242,True,False
19,3,2322.4962699000025,cross,"(480.0, -270.0)",0,2932.728699990548,286.01939999498427,True,False
19,3,2322.509645699989,cross,"(480.0, -270.0)",0,2946.104499977082,299.3951999815181,True,False
19,3,2322.526689499995,cross,"(480.0, -270.0)",0,2963.148299983004,316.4389999874402,True,False
19,3,2322.544777700008,cross,"(480.0, -270.0)",0,2981.2364999961574,334.52720000059344,True,False
19,3,2322.5603017999965,cross,"(480.0, -270.0)",0,2996.7605999845546,350.05129998899065,True,False
19,3,2322.5768951000064,cross,"(480.0, -270.0)",0,3013.3538999943994,366.6445999988355,True,False
19,3,2322.594070299994,cross,"(480.0, -270.0)",0,3030.529099982232,383.81979998666793,True,False
19,3,2322.6098402999924,cross,"(480.0, -270.0)",0,3046.299099980388,399.5897999848239,True,False
19,3,2322.626951399987,cross,"(480.0, -270.0)",0,3063.4101999748964,416.70089997933246,True,False
19,3,2322.643358400004,cross,"(480.0, -270.0)",0,3079.817199992249,433.10789999668486,True,False
19,3,2322.660200399987,cross,"(480.0, -270.0)",0,3096.6591999749653,449.9498999794014,True,False
19,3,2322.6762573999877,cross,"(480.0, -270.0)",0,3112.7161999756936,466.0068999801297,True,False
19,3,2322.693389799999,cross,"(480.0, -270.0)",0,3129.8485999868717,483.1392999913078,True,False
19,3,2322.7103231000074,cross,"(480.0, -270.0)",0,3146.7818999954034,500.07259999983944,True,False
19,3,2322.72612929999,cross,"(480.0, -270.0)",0,3162.5880999781657,515.8787999826018,True,False
19,3,2322.743260499992,cross,"(480.0, -270.0)",0,3179.7192999802064,533.0099999846425,True,False
19,3,2322.7588796000055,cross,"(480.0, -270.0)",0,3195.3383999934886,548.6290999979246,True,False
19,3,2322.7762963999994,cross,"(480.0, -270.0)",0,3212.7551999874413,566.0458999918774,True,False
19,3,2322.7928617,cross,"(480.0, -270.0)",0,3229.320499987807,582.6111999922432,True,False
19,3,2322.8093944999855,cross,"(480.0, -270.0)",0,3245.8532999735326,599.1439999779686,True,False
19,3,2322.8262183000043,cross,"(480.0, -270.0)",0,3262.6770999922883,615.9677999967244,True,False
19,3,2322.8426041000057,cross,"(480.0, -270.0)",0,3279.0628999937326,632.3535999981686,True,False
19,3,2322.8593842999835,cross,"(480.0, -270.0)",0,3295.8430999715347,649.1337999759708,True,False
19,3,2322.8761606999906,cross,"(480.0, -270.0)",0,3312.6194999786094,665.9101999830455,True,False
19,3,2322.8928782999865,cross,"(480.0, -270.0)",0,3329.3370999745093,682.6277999789454,True,False
19,3,2322.909421599994,cross,"(480.0, -270.0)",0,3345.8803999819793,699.1710999864154,True,False
19,3,2322.9260402999935,cross,"(480.0, -270.0)",0,3362.4990999815054,715.7897999859415,True,False
19,3,2322.942828900006,cross,"(480.0, -270.0)",0,3379.2876999941655,732.5783999986015,True,False
19,3,2322.959523700003,cross,"(480.0, -270.0)",0,3395.982499991078,749.273199995514,True,False
19,3,2322.9763355999894,cross,"(480.0, -270.0)",0,3412.794399977429,766.0850999818649,True,False
19,3,2322.992899100005,cross,"(480.0, -270.0)",0,3429.3578999931924,782.6485999976285,True,False
19,3,2323.010008299985,cross,"(480.0, -270.0)",0,3446.4670999732334,799.7577999776695,True,False
19,3,2323.0264344000025,cross,"(480.0, -270.0)",0,3462.8931999905035,816.1838999949396,True,False
19,3,2323.0427349999954,cross,"(480.0, -270.0)",0,3479.193799983477,832.4844999879133,True,False
19,3,2323.059244200005,cross,"(480.0, -270.0)",0,3495.7029999932274,848.9936999976635,True,False
19,3,2323.0763780999987,cross,"(480.0, -270.0)",0,3512.8368999867234,866.1275999911595,True,False
19,3,2323.092743599991,cross,"(480.0, -270.0)",0,3529.2023999791127,882.4930999835487,True,False
19,3,2323.1095998999954,cross,"(480.0, -270.0)",0,3546.058699983405,899.349399987841,True,False
19,3,2323.126135600003,cross,"(480.0, -270.0)",0,3562.5943999912124,915.8850999956485,True,False
19,3,2323.1428501000046,cross,"(480.0, -270.0)",0,3579.3088999926113,932.5995999970473,True,False
19,3,2323.159398699994,cross,"(480.0, -270.0)",0,3595.8574999822304,949.1481999866664,True,False
19,3,2323.1759825999907,cross,"(480.0, -270.0)",0,3612.4413999787066,965.7320999831427,True,False
19,3,2323.192940799985,cross,"(480.0, -270.0)",0,3629.3995999731123,982.6902999775484,True,False
19,3,2323.2087872999837,cross,"(480.0, -270.0)",0,3645.2460999717005,998.5367999761365,True,False
19,3,2323.2260086000024,cross,"(480.0, -270.0)",0,3662.467399990419,1015.758099994855,True,False
19,3,2323.2429264000093,cross,"(480.0, -270.0)",0,3679.3851999973413,1032.6759000017773,True,False
19,3,2323.259179399989,cross,"(480.0, -270.0)",0,3695.638199977111,1048.9288999815471,True,False
19,3,2323.2761155999906,cross,"(480.0, -270.0)",0,3712.574399978621,1065.865099983057,True,False
19,3,2323.293222600012,cross,"(480.0, -270.0)",0,3729.6814000001177,1082.9721000045538,True,False
19,3,2323.309956299985,cross,"(480.0, -270.0)",0,3746.415099973092,1099.705799977528,True,False
19,3,2323.3248112,cross,"(480.0, -270.0)",0,3761.2699999881443,1114.5606999925803,True,False
19,3,2323.3465624999953,cross,"(480.0, -270.0)",0,3783.021299983375,1136.3119999878109,True,False
19,3,2323.389963399997,cross,"(480.0, -270.0)",0,3826.4221999852452,1179.7128999896813,True,False
19,3,2323.4210026999936,cross,"(480.0, -270.0)",0,3857.461499981582,1210.7521999860182,True,False
19,3,2323.4334829,cross,"(480.0, -270.0)",0,3869.941699987976,1223.232399992412,True,False
19,3,2323.4617484000046,cross,"(480.0, -270.0)",0,3898.207199992612,1251.497899997048,True,False
19,3,2323.4809386999987,cross,"(480.0, -270.0)",0,3917.3974999866914,1270.6881999911275,True,False
19,3,2323.496370000008,cross,"(480.0, -270.0)",0,3932.8287999960594,1286.1195000004955,True,False
19,3,2323.512784099992,cross,"(480.0, -270.0)",0,3949.242899980163,1302.5335999845993,True,False
19,3,2323.527177000011,cross,"(480.0, -270.0)",0,3963.635799998883,1316.9265000033192,True,False
19,3,2323.5435973999847,cross,"(480.0, -270.0)",0,3980.0561999727506,1333.3468999771867,True,False
19,3,2323.559611600009,cross,"(480.0, -270.0)",0,3996.0703999968246,1349.3611000012606,True,False
19,3,2323.57644840001,cross,"(480.0, -270.0)",0,4012.9071999981534,1366.1979000025894,True,False
19,3,2323.5925606999954,cross,"(480.0, -270.0)",0,4029.0194999834057,1382.3101999878418,True,False
19,3,2323.6099007999874,cross,"(480.0, -270.0)",0,4046.3595999754034,1399.6502999798395,True,False
19,3,2323.6245441999927,cross,"(480.0, -270.0)",0,4061.002999980701,1414.2936999851372,True,False
19,3,2323.6430245999945,cross,"(480.0, -270.0)",0,4079.483399982564,1432.7740999870002,True,False
19,3,2323.6597428999958,cross,"(480.0, -270.0)",0,4096.201699983794,1449.4923999882303,True,False
19,3,2323.6764154999983,cross,"(480.0, -270.0)",0,4112.874299986288,1466.164999990724,True,False
19,3,2323.6927869000065,cross,"(480.0, -270.0)",0,4129.245699994499,1482.536399998935,True,False
19,3,2323.7104076000105,cross,"(480.0, -270.0)",0,4146.866399998544,1500.1571000029799,True,False
19,3,2323.7260354000027,cross,"(480.0, -270.0)",0,4162.4941999907605,1515.7848999951966,True,False
19,3,2323.7430830000085,cross,"(480.0, -270.0)",0,4179.541799996514,1532.83250000095,True,False
19,3,2323.7596895000024,cross,"(480.0, -270.0)",0,4196.148299990455,1549.4389999948908,True,False
19,3,2323.7766088999924,cross,"(480.0, -270.0)",0,4213.067699980456,1566.3583999848925,True,False
19,3,2323.79313179999,cross,"(480.0, -270.0)",0,4229.59059997811,1582.881299982546,True,False
19,3,2323.810097699985,cross,"(480.0, -270.0)",0,4246.5564999729395,1599.8471999773756,True,False
19,3,2323.825432099984,cross,"(480.0, -270.0)",0,4261.890899972059,1615.181599976495,True,False
19,3,2323.8433303000056,cross,"(480.0, -270.0)",0,4279.78909999365,1633.079799998086,True,False
19,3,2323.8598597999953,cross,"(480.0, -270.0)",0,4296.318599983351,1649.6092999877874,True,False
19,3,2323.876498800004,cross,"(480.0, -270.0)",0,4312.9575999919325,1666.2482999963686,True,False
19,3,2323.8928655000054,cross,"(480.0, -270.0)",0,4329.324299993459,1682.6149999978952,True,False
19,3,2323.9099451999937,cross,"(480.0, -270.0)",0,4346.403999981703,1699.6946999861393,True,False
19,3,2323.9268339999835,cross,"(480.0, -270.0)",0,4363.292799971532,1716.5834999759682,True,False
19,3,2323.9430162000062,cross,"(480.0, -270.0)",0,4379.474999994272,1732.7656999987084,True,False
19,3,2323.959552699991,cross,"(480.0, -270.0)",0,4396.011499979068,1749.3021999835037,True,False
19,3,2323.9779706000118,cross,"(480.0, -270.0)",0,4414.42939999979,1767.720100004226,True,False
20,1,2332.907479799993,circle,"(-480.0, -270.0)",266.6998000058811,1647.3523000022396,1647.3523000022396,False,True
20,2,2333.1736363999953,circle,"(-480.0, -270.0)",263.1163999903947,1913.508900004672,266.15660000243224,True,False
20,2,2333.1917407999863,circle,"(-480.0, -270.0)",0,1931.6132999956608,284.26099999342114,True,False
20,2,2333.2070721999917,circle,"(-480.0, -270.0)",0,1946.9447000010405,299.59239999880083,True,False
20,2,2333.2236757999926,circle,"(-480.0, -270.0)",0,1963.548300002003,316.19599999976344,True,False
20,2,2333.2411245999974,circle,"(-480.0, -270.0)",0,1980.997100006789,333.6448000045493,True,False
20,2,2333.2561424000014,circle,"(-480.0, -270.0)",0,1996.0149000107776,348.662600008538,True,False
20,2,2333.2735238999885,circle,"(-480.0, -270.0)",0,2013.3963999978732,366.0440999956336,True,False
20,2,2333.2902228999883,circle,"(-480.0, -270.0)",0,2030.0953999976628,382.7430999954231,True,False
20,2,2333.3075517000107,circle,"(-480.0, -270.0)",0,2047.424200020032,400.07190001779236,True,False
20,2,2333.3237989000045,circle,"(-480.0, -270.0)",0,2063.6714000138454,416.31910001160577,True,False
20,2,2333.3411399000033,circle,"(-480.0, -270.0)",0,2081.012400012696,433.6601000104565,True,False
20,2,2333.356157500006,circle,"(-480.0, -270.0)",0,2096.030000015162,448.6777000129223,True,False
20,2,2333.3745463000087,circle,"(-480.0, -270.0)",0,2114.4188000180293,467.06650001578964,True,False
20,2,2333.3904537000053,circle,"(-480.0, -270.0)",0,2130.3262000146788,482.9739000124391,True,False
20,2,2333.407871400006,circle,"(-480.0, -270.0)",0,2147.7439000154845,500.3916000132449,True,False
20,2,2333.423214999988,circle,"(-480.0, -270.0)",0,2163.0874999973457,515.7351999951061,True,False
20,2,2333.441001500003,circle,"(-480.0, -270.0)",0,2180.874000012409,533.5217000101693,True,False
20,2,2333.456501699984,circle,"(-480.0, -270.0)",0,2196.3741999934427,549.0218999912031,True,False
20,2,2333.4800197999866,circle,"(-480.0, -270.0)",0,2219.8922999959905,572.5399999937508,True,False
20,2,2333.506629899988,circle,"(-480.0, -270.0)",0,2246.502399997553,599.1500999953132,True,False
20,2,2333.5241592999955,circle,"(-480.0, -270.0)",0,2264.0318000048865,616.6795000026468,True,False
20,2,2333.5405660000106,circle,"(-480.0, -270.0)",0,2280.4385000199545,633.0862000177149,True,False
20,2,2333.5563249000115,circle,"(-480.0, -270.0)",0,2296.197400020901,648.8451000186615,True,False
20,2,2333.573853799986,circle,"(-480.0, -270.0)",0,2313.7262999953236,666.373999993084,True,False
20,2,2333.5900488999905,circle,"(-480.0, -270.0)",0,2329.9213999998756,682.5690999976359,True,False
20,2,2333.606833900005,circle,"(-480.0, -270.0)",0,2346.7064000142273,699.3541000119876,True,False
20,2,2333.6232047000085,circle,"(-480.0, -270.0)",0,2363.0772000178695,715.7249000156298,True,False
20,2,2333.640938700002,circle,"(-480.0, -270.0)",0,2380.8112000115216,733.4589000092819,True,False
20,2,2333.6564006000117,circle,"(-480.0, -270.0)",0,2396.2731000210624,748.9208000188228,True,False
20,2,2333.673474899988,circle,"(-480.0, -270.0)",0,2413.347399997292,765.9950999950524,True,False
20,2,2333.689554100012,circle,"(-480.0, -270.0)",0,2429.426600021543,782.0743000193033,True,False
20,2,2333.7077490999945,circle,"(-480.0, -270.0)",0,2447.621600003913,800.2693000016734,True,False
20,2,2333.7235705000057,circle,"(-480.0, -270.0)",0,2463.443000015104,816.0907000128645,True,False
20,2,2333.740917099989,circle,"(-480.0, -270.0)",0,2480.7895999983884,833.4372999961488,True,False
20,2,2333.7558136000007,circle,"(-480.0, -270.0)",0,2495.6861000100616,848.333800007822,True,False
20,2,2333.777939499996,circle,"(-480.0, -270.0)",0,2517.812000005506,870.4597000032663,True,False
20,2,2333.7902123999957,circle,"(-480.0, -270.0)",0,2530.084900005022,882.7326000027824,True,False
20,2,2333.8065231000073,circle,"(-480.0, -270.0)",0,2546.3956000166945,899.0433000144549,True,False
20,2,2333.8236613000045,circle,"(-480.0, -270.0)",0,2563.533800013829,916.1815000115894,True,False
20,2,2333.8400058000116,circle,"(-480.0, -270.0)",0,2579.878300020937,932.5260000186972,True,False
20,2,2333.8562396999914,circle,"(-480.0, -270.0)",0,2596.112200000789,948.7598999985494,True,False
20,2,2333.8743823000113,circle,"(-480.0, -270.0)",0,2614.254800020717,966.9025000184774,True,False
20,2,2333.8896391000017,circle,"(-480.0, -270.0)",0,2629.5116000110283,982.1593000087887,True,False
20,2,2333.9074986999913,circle,"(-480.0, -270.0)",0,2647.3712000006344,1000.0188999983948,True,False
20,2,2333.922546799993,circle,"(-480.0, -270.0)",0,2662.4193000025116,1015.067000000272,True,False
20,2,2333.9407098999945,circle,"(-480.0, -270.0)",0,2680.582400003914,1033.2301000016741,True,False
20,2,2333.9564352000016,circle,"(-480.0, -270.0)",0,2696.307700010948,1048.9554000087082,True,False
20,2,2333.974087599985,circle,"(-480.0, -270.0)",0,2713.9600999944378,1066.6077999921981,True,False
20,2,2333.989219899988,circle,"(-480.0, -270.0)",0,2729.092399997171,1081.7400999949314,True,False
20,2,2334.0060897000076,circle,"(-480.0, -270.0)",0,2745.9622000169475,1098.6099000147078,True,False
20,2,2334.0229225000076,circle,"(-480.0, -270.0)",0,2762.795000016922,1115.4427000146825,True,False
20,2,2334.0400213999965,circle,"(-480.0, -270.0)",0,2779.8939000058454,1132.5416000036057,True,False
20,2,2334.055164199992,circle,"(-480.0, -270.0)",0,2795.0367000012193,1147.6843999989796,True,False
20,2,2334.0739845999924,circle,"(-480.0, -270.0)",0,2813.857100001769,1166.5047999995295,True,False
20,2,2334.089299299987,circle,"(-480.0, -270.0)",0,2829.171799996402,1181.8194999941625,True,False
20,2,2334.1073603999976,circle,"(-480.0, -270.0)",0,2847.2329000069294,1199.8806000046898,True,False
20,2,2334.1231420999975,circle,"(-480.0, -270.0)",0,2863.0146000068635,1215.6623000046238,True,False
20,2,2334.1402214999835,circle,"(-480.0, -270.0)",0,2880.0939999928232,1232.7416999905836,True,False
20,2,2334.1563969999843,circle,"(-480.0, -270.0)",0,2896.2694999936502,1248.9171999914106,True,False
20,2,2334.1733381999948,circle,"(-480.0, -270.0)",0,2913.2107000041287,1265.858400001889,True,False
20,2,2334.1895667999925,circle,"(-480.0, -270.0)",0,2929.4393000018317,1282.086999999592,True,False
20,2,2334.207404399989,circle,"(-480.0, -270.0)",0,2947.276899998542,1299.9245999963023,True,False
20,2,2334.2232247999927,circle,"(-480.0, -270.0)",0,2963.0973000021186,1315.744999999879,True,False
20,2,2334.2400509,circle,"(-480.0, -270.0)",0,2979.923400009284,1332.5711000070442,True,False
20,2,2334.254439399985,circle,"(-480.0, -270.0)",0,2994.3118999945,1346.9595999922603,True,False
20,2,2334.2740588999877,circle,"(-480.0, -270.0)",0,3013.931399997091,1366.5790999948513,True,False
20,2,2334.294281499984,circle,"(-480.0, -270.0)",0,3034.1539999935776,1386.801699991338,True,False
20,2,2334.3085035000113,circle,"(-480.0, -270.0)",0,3048.376000020653,1401.0237000184134,True,False
20,2,2334.322950300004,circle,"(-480.0, -270.0)",0,3062.8228000132367,1415.470500010997,True,False
20,2,2334.3406602999894,circle,"(-480.0, -270.0)",0,3080.532799998764,1433.1804999965243,True,False
20,2,2334.355899199989,circle,"(-480.0, -270.0)",0,3095.771699998295,1448.4193999960553,True,False
20,2,2334.3739993000054,circle,"(-480.0, -270.0)",0,3113.871800014749,1466.5195000125095,True,False
20,2,2334.3892967999855,circle,"(-480.0, -270.0)",0,3129.169299994828,1481.8169999925885,True,False
20,2,2334.4075446999923,circle,"(-480.0, -270.0)",0,3147.417200001655,1500.0648999994155,True,False
20,2,2334.4229885000095,circle,"(-480.0, -270.0)",0,3162.861000018893,1515.5087000166532,True,False
20,2,2334.440344200004,circle,"(-480.0, -270.0)",0,3180.2167000132613,1532.8644000110216,True,False
20,2,2334.455708399997,circle,"(-480.0, -270.0)",0,3195.580900006462,1548.2286000042222,True,False
20,2,2334.474137799989,circle,"(-480.0, -270.0)",0,3214.0102999983355,1566.657999996096,True,False
20,2,2334.4896397999837,circle,"(-480.0, -270.0)",0,3229.5122999930754,1582.1599999908358,True,False
20,2,2334.507292800001,circle,"(-480.0, -270.0)",0,3247.165300010238,1599.8130000079982,True,False
20,2,2334.522690499987,circle,"(-480.0, -270.0)",0,3262.5629999965895,1615.2106999943499,True,False
20,2,2334.5405885000073,circle,"(-480.0, -270.0)",0,3280.4610000166576,1633.108700014418,True,False
20,2,2334.5563055000093,circle,"(-480.0, -270.0)",0,3296.178000018699,1648.8257000164595,True,False
20,2,2334.5734773000004,circle,"(-480.0, -270.0)",0,3313.349800009746,1665.9975000075065,True,False
20,2,2334.589231399994,circle,"(-480.0, -270.0)",0,3329.103900003247,1681.7516000010073,True,False
20,2,2334.6076015,circle,"(-480.0, -270.0)",0,3347.4740000092424,1700.1217000070028,True,False
20,2,2334.6227781999914,circle,"(-480.0, -270.0)",0,3362.6507000008132,1715.2983999985736,True,False
20,2,2334.6408021000098,circle,"(-480.0, -270.0)",0,3380.6746000191197,1733.32230001688,True,False
20,2,2334.656800800003,circle,"(-480.0, -270.0)",0,3396.6733000124805,1749.3210000102408,True,False
20,2,2334.6731555000006,circle,"(-480.0, -270.0)",0,3413.0280000099447,1765.675700007705,True,False
20,2,2335.5393942999945,cross,"(480.0, -270.0)",266.61479999893345,4279.266800003825,2631.914500001585,False,True
20,3,2335.806509599992,cross,"(480.0, -270.0)",262.5065000029281,4546.38210000121,267.1152999973856,True,False
20,3,2335.8257741999987,cross,"(480.0, -270.0)",0,4565.646700008074,286.37990000424907,True,False
20,3,2335.8397986000055,cross,"(480.0, -270.0)",0,4579.671100014821,300.40430001099594,True,False
20,3,2335.854806999996,cross,"(480.0, -270.0)",0,4594.679500005441,315.41270000161603,True,False
20,3,2335.873922300001,cross,"(480.0, -270.0)",0,4613.79480001051,334.52800000668503,True,False
20,3,2335.8890575999976,cross,"(480.0, -270.0)",0,4628.930100006983,349.66330000315793,True,False
20,3,2335.907148099999,cross,"(480.0, -270.0)",0,4647.020600008545,367.7538000047207,True,False
20,3,2335.9205504999845,cross,"(480.0, -270.0)",0,4660.422999993898,381.1561999900732,True,False
20,3,2335.9399866999884,cross,"(480.0, -270.0)",0,4679.859199997736,400.5923999939114,True,False
20,3,2335.9539226999914,cross,"(480.0, -270.0)",0,4693.79520000075,414.52839999692515,True,False
20,3,2335.9723172000085,cross,"(480.0, -270.0)",0,4712.189700017916,432.9229000140913,True,False
20,3,2335.9875481000054,cross,"(480.0, -270.0)",0,4727.420600014739,448.153800010914,True,False
20,3,2336.006437600008,cross,"(480.0, -270.0)",0,4746.310100017581,467.0433000137564,True,False
20,3,2336.0212159999937,cross,"(480.0, -270.0)",0,4761.088500003098,481.8216999992728,True,False
20,3,2336.0401710000006,cross,"(480.0, -270.0)",0,4780.043500009924,500.7767000060994,True,False
20,3,2336.0543577999924,cross,"(480.0, -270.0)",0,4794.2303000018,514.9634999979753,True,False
20,3,2336.0729206000105,cross,"(480.0, -270.0)",0,4812.793100019917,533.5263000160921,True,False
20,3,2336.0875043999986,cross,"(480.0, -270.0)",0,4827.376900007948,548.1101000041235,True,False
20,3,2336.105917799985,cross,"(480.0, -270.0)",0,4845.790299994405,566.5234999905806,True,False
20,3,2336.121140400006,cross,"(480.0, -270.0)",0,4861.012900015339,581.7461000115145,True,False
20,3,2336.13986570001,cross,"(480.0, -270.0)",0,4879.738200019347,600.4714000155218,True,False
20,3,2336.153898999997,cross,"(480.0, -270.0)",0,4893.771500006551,614.5047000027262,True,False
20,3,2336.1714261999878,cross,"(480.0, -270.0)",0,4911.298699997133,632.0318999933079,True,False
20,3,2336.1867573999916,cross,"(480.0, -270.0)",0,4926.629900000989,647.3630999971647,True,False
20,3,2336.205481299985,cross,"(480.0, -270.0)",0,4945.353799994336,666.0869999905117,True,False
20,3,2336.2215703999973,cross,"(480.0, -270.0)",0,4961.442900006659,682.1761000028346,True,False
20,3,2336.2396302999987,cross,"(480.0, -270.0)",0,4979.502800008049,700.2360000042245,True,False
20,3,2336.2542824999837,cross,"(480.0, -270.0)",0,4994.154999993043,714.8881999892183,True,False
20,3,2336.271577799984,cross,"(480.0, -270.0)",0,5011.450299993157,732.1834999893326,True,False
20,3,2336.2873360000085,cross,"(480.0, -270.0)",0,5027.208500017878,747.9417000140529,True,False
20,3,2336.3064409999934,cross,"(480.0, -270.0)",0,5046.313500002725,767.0466999989003,True,False
20,3,2336.3208790000062,cross,"(480.0, -270.0)",0,5060.751500015613,781.4847000117879,True,False
20,3,2336.338776199991,cross,"(480.0, -270.0)",0,5078.648700000485,799.3818999966606,True,False
20,3,2336.353897199995,cross,"(480.0, -270.0)",0,5093.769700004486,814.5029000006616,True,False
20,3,2336.3715326999954,cross,"(480.0, -270.0)",0,5111.4052000048105,832.1384000009857,True,False
20,3,2336.388109199994,cross,"(480.0, -270.0)",0,5127.981700003147,848.7148999993224,True,False
20,3,2336.405808100011,cross,"(480.0, -270.0)",0,5145.680600020569,866.4138000167441,True,False
20,3,2336.4216147999978,cross,"(480.0, -270.0)",0,5161.487300007138,882.2205000033136,True,False
20,3,2336.4383820999938,cross,"(480.0, -270.0)",0,5178.254600003129,898.9877999993041,True,False
20,3,2336.454138800007,cross,"(480.0, -270.0)",0,5194.011300016427,914.7445000126027,True,False
20,3,2336.4720562,cross,"(480.0, -270.0)",0,5211.928700009594,932.661900005769,True,False
20,3,2336.4872525999963,cross,"(480.0, -270.0)",0,5227.125100005651,947.8583000018261,True,False
20,3,2336.5050510999863,cross,"(480.0, -270.0)",0,5244.923599995673,965.656799991848,True,False
20,3,2336.521477800008,cross,"(480.0, -270.0)",0,5261.3503000175115,982.0835000136867,True,False
20,3,2336.53864340001,cross,"(480.0, -270.0)",0,5278.515900019556,999.2491000157315,True,False
20,3,2336.5539572999987,cross,"(480.0, -270.0)",0,5293.829800008098,1014.5630000042729,True,False
20,3,2336.5718897999905,cross,"(480.0, -270.0)",0,5311.7622999998275,1032.4954999960028,True,False
20,3,2336.5870413999946,cross,"(480.0, -270.0)",0,5326.913900004001,1047.6471000001766,True,False
20,3,2336.6057402000006,cross,"(480.0, -270.0)",0,5345.612700009951,1066.3459000061266,True,False
20,3,2336.62108360001,cross,"(480.0, -270.0)",0,5360.9561000193935,1081.6893000155687,True,False
20,3,2336.6388670000015,cross,"(480.0, -270.0)",0,5378.739500010852,1099.472700007027,True,False
20,3,2336.654410099989,cross,"(480.0, -270.0)",0,5394.282599998405,1115.0157999945804,True,False
20,3,2336.671925200004,cross,"(480.0, -270.0)",0,5411.797700013267,1132.5309000094421,True,False
20,3,2336.6875304999994,cross,"(480.0, -270.0)",0,5427.4030000087805,1148.1362000049558,True,False
20,3,2336.7066229000047,cross,"(480.0, -270.0)",0,5446.495400014101,1167.2286000102758,True,False
20,3,2336.720897899999,cross,"(480.0, -270.0)",0,5460.770400008187,1181.503600004362,True,False
20,3,2336.7381523000076,cross,"(480.0, -270.0)",0,5478.02480001701,1198.7580000131857,True,False
20,3,2336.7538272000093,cross,"(480.0, -270.0)",0,5493.699700018624,1214.432900014799,True,False
20,3,2336.7714569999953,cross,"(480.0, -270.0)",0,5511.329500004649,1232.0627000008244,True,False
20,3,2336.787174500001,cross,"(480.0, -270.0)",0,5527.047000010498,1247.780200006673,True,False
20,3,2336.806854900002,cross,"(480.0, -270.0)",0,5546.72740001115,1267.4606000073254,True,False
20,3,2336.822036800004,cross,"(480.0, -270.0)",0,5561.9093000132125,1282.6425000093877,True,False
20,3,2336.8399829999835,cross,"(480.0, -270.0)",0,5579.855499992846,1300.5886999890208,True,False
20,3,2336.8555758,cross,"(480.0, -270.0)",0,5595.448300009593,1316.1815000057686,True,False
20,3,2336.8730252000096,cross,"(480.0, -270.0)",0,5612.897700018948,1333.6309000151232,True,False
20,3,2336.887332399987,cross,"(480.0, -270.0)",0,5627.204899996286,1347.9380999924615,True,False
20,3,2336.905303799984,cross,"(480.0, -270.0)",0,5645.176299993182,1365.9094999893568,True,False
20,3,2336.9205586999888,cross,"(480.0, -270.0)",0,5660.431199998129,1381.1643999943044,True,False
20,3,2336.9382449999976,cross,"(480.0, -270.0)",0,5678.11750000692,1398.850700003095,True,False
20,3,2336.9537101000024,cross,"(480.0, -270.0)",0,5693.582600011723,1414.3158000078984,True,False
20,3,2336.971614899987,cross,"(480.0, -270.0)",0,5711.487399996258,1432.2205999924336,True,False
20,3,2336.9871812000056,cross,"(480.0, -270.0)",0,5727.053700014949,1447.786900011124,True,False
20,3,2337.004918699997,cross,"(480.0, -270.0)",0,5744.791200006148,1465.524400002323,True,False
20,3,2337.01985099999,cross,"(480.0, -270.0)",0,5759.723499999382,1480.4566999955568,True,False
20,3,2337.0380078000017,cross,"(480.0, -270.0)",0,5777.88030001102,1498.6135000071954,True,False
20,3,2337.053423300007,cross,"(480.0, -270.0)",0,5793.2958000164945,1514.0290000126697,True,False
20,3,2337.072513799998,cross,"(480.0, -270.0)",0,5812.386300007347,1533.1195000035223,True,False
20,3,2337.087891000003,cross,"(480.0, -270.0)",0,5827.7635000122245,1548.4967000083998,True,False
20,3,2337.1101628000033,cross,"(480.0, -270.0)",0,5850.035300012678,1570.7685000088532,True,False
20,3,2337.123521600006,cross,"(480.0, -270.0)",0,5863.3941000152845,1584.1273000114597,True,False
20,3,2337.140012299991,cross,"(480.0, -270.0)",0,5879.884800000582,1600.6179999967571,True,False
20,3,2337.154837899987,cross,"(480.0, -270.0)",0,5894.7103999962565,1615.4435999924317,True,False
20,3,2337.1724434999924,cross,"(480.0, -270.0)",0,5912.316000001738,1633.049199997913,True,False
20,3,2337.1878612999863,cross,"(480.0, -270.0)",0,5927.733799995622,1648.466999991797,True,False
20,3,2337.205637100007,cross,"(480.0, -270.0)",0,5945.509600016521,1666.2428000126965,True,False
20,3,2337.2204484000104,cross,"(480.0, -270.0)",0,5960.320900019724,1681.0541000158992,True,False
20,3,2337.2381236999936,cross,"(480.0, -270.0)",0,5977.996200002963,1698.729399999138,True,False
20,3,2337.2535590000043,cross,"(480.0, -270.0)",0,5993.431500013685,1714.16470000986,True,False
20,3,2337.271485400008,cross,"(480.0, -270.0)",0,6011.357900017174,1732.0911000133492,True,False
20,3,2337.2869708999933,cross,"(480.0, -270.0)",0,6026.84340000269,1747.5765999988653,True,False
20,3,2337.304782799998,cross,"(480.0, -270.0)",0,6044.655300007435,1765.3885000036098,True,False
20,3,2337.3205228000006,cross,"(480.0, -270.0)",0,6060.395300009986,1781.1285000061616,True,False
20,3,2337.3395166999835,cross,"(480.0, -270.0)",0,6079.389199992875,1800.1223999890499,True,False
20,3,2340.237056699989,t,"(480.0, 270.0)",266.95659998222254,8976.929199998267,4697.662399994442,False,True
20,4,2343.1842344999895,cross,"(480.0, -270.0)",264.5573999907356,11924.106999998912,2947.177800000645,False,True
