trial_num,selection_num,timestamp,shape,position,fixation_duration_ms,rt_from_trial_start_ms,rt_from_previous_selection_ms,queued_selection,was_executed
13,1,177.96678950000205,circle,"(-480.0, -270.0)",267.80160001362674,1301.1575000127777,1301.1575000127777,False,True
13,2,178.96711830000277,circle,"(-480.0, -270.0)",366.1451000079978,2301.4863000134937,1000.328800000716,True,False
13,2,178.9881131000002,circle,"(-480.0, -270.0)",0,2322.4811000109185,1021.3235999981407,True,False
13,2,179.00098879999132,circle,"(-480.0, -270.0)",0,2335.356800002046,1034.1992999892682,True,False
13,2,179.0200463999936,circle,"(-480.0, -270.0)",0,2354.414400004316,1053.2568999915384,True,False
13,2,179.05105710000498,circle,"(-480.0, -270.0)",0,2385.425100015709,1084.2676000029314,True,False
13,2,179.0671536999871,circle,"(-480.0, -270.0)",0,2401.5216999978293,1100.3641999850515,True,False
13,2,179.08501839998644,circle,"(-480.0, -270.0)",0,2419.3863999971654,1118.2288999843877,True,False
13,2,179.09991809999337,circle,"(-480.0, -270.0)",0,2434.286100004101,1133.1285999913234,True,False
13,2,179.11777909999364,circle,"(-480.0, -270.0)",0,2452.1471000043675,1150.9895999915898,True,False
13,2,179.13311549997889,circle,"(-480.0, -270.0)",0,2467.483499989612,1166.3259999768343,True,False
13,2,179.1492754999781,circle,"(-480.0, -270.0)",0,2483.6434999888297,1182.485999976052,True,False
13,2,179.16936959998566,circle,"(-480.0, -270.0)",0,2503.7375999963842,1202.5800999836065,True,False
13,2,179.18684239999857,circle,"(-480.0, -270.0)",0,2521.210400009295,1220.0528999965172,True,False
13,2,179.20478879997972,circle,"(-480.0, -270.0)",0,2539.156799990451,1237.9992999776732,True,False
13,2,179.22192240000004,circle,"(-480.0, -270.0)",0,2556.2904000107665,1255.1328999979887,True,False
13,2,179.25033569999505,circle,"(-480.0, -270.0)",0,2584.7037000057753,1283.5461999929976,True,False
13,2,179.266484199994,circle,"(-480.0, -270.0)",0,2600.852200004738,1299.69469999196,True,False
13,2,179.28377039998304,circle,"(-480.0, -270.0)",0,2618.138399993768,1316.9808999809902,True,False
13,2,179.29916850000154,circle,"(-480.0, -270.0)",0,2633.5365000122692,1332.3789999994915,True,False
13,2,179.31711579998955,circle,"(-480.0, -270.0)",0,2651.4838000002783,1350.3262999875005,True,False
13,2,179.33161279998603,circle,"(-480.0, -270.0)",0,2665.9807999967597,1364.823299983982,True,False
13,2,179.35224849998485,circle,"(-480.0, -270.0)",0,2686.61649999558,1385.4589999828022,True,False
13,2,179.36829879999277,circle,"(-480.0, -270.0)",0,2702.666800003499,1401.509299990721,True,False
13,2,179.38183430000208,circle,"(-480.0, -270.0)",0,2716.20230001281,1415.0448000000324,True,False
13,2,179.39974289998645,circle,"(-480.0, -270.0)",0,2734.1108999971766,1432.9533999843989,True,False
13,2,179.41362209999352,circle,"(-480.0, -270.0)",0,2747.9901000042446,1446.8325999914669,True,False
13,2,179.432363800006,circle,"(-480.0, -270.0)",0,2766.7318000167143,1465.5743000039365,True,False
13,2,179.4501237999939,circle,"(-480.0, -270.0)",0,2784.4918000046164,1483.3342999918386,True,False
13,2,179.4665155999828,circle,"(-480.0, -270.0)",0,2800.88359999354,1499.7260999807622,True,False
13,2,179.48570989997825,circle,"(-480.0, -270.0)",0,2820.0778999889735,1518.9203999761958,True,False
13,2,179.4994907999935,circle,"(-480.0, -270.0)",0,2833.8588000042364,1532.7012999914587,True,False
13,2,179.5184970999835,circle,"(-480.0, -270.0)",0,2852.865099994233,1551.7075999814551,True,False
13,2,179.53236599999946,circle,"(-480.0, -270.0)",0,2866.734000010183,1565.5764999974053,True,False
13,2,179.54943049998838,circle,"(-480.0, -270.0)",0,2883.798499999102,1582.6409999863245,True,False
13,2,179.56752969999798,circle,"(-480.0, -270.0)",0,2901.8977000087034,1600.7401999959257,True,False
13,2,179.58759509999072,circle,"(-480.0, -270.0)",0,2921.9631000014488,1620.805599988671,True,False
13,2,179.60149790000287,circle,"(-480.0, -270.0)",0,2935.865900013596,1634.708400000818,True,False
13,2,179.6140044000058,circle,"(-480.0, -270.0)",0,2948.372400016524,1647.2149000037462,True,False
13,2,179.6289584999904,circle,"(-480.0, -270.0)",0,2963.3265000011306,1662.1689999883529,True,False
13,2,179.65071940000053,circle,"(-480.0, -270.0)",0,2985.0874000112526,1683.9298999984749,True,False
13,2,179.66554220000398,circle,"(-480.0, -270.0)",0,2999.9102000147104,1698.7527000019327,True,False
13,2,179.6854878999875,circle,"(-480.0, -270.0)",0,3019.8558999982197,1718.698399985442,True,False
13,2,179.7010745999869,circle,"(-480.0, -270.0)",0,3035.442599997623,1734.2850999848451,True,False
13,2,179.71804139998858,circle,"(-480.0, -270.0)",0,3052.4093999993056,1751.2518999865279,True,False
13,2,179.73170689999824,circle,"(-480.0, -270.0)",0,3066.074900008971,1764.9173999961931,True,False
13,2,179.74709180000355,circle,"(-480.0, -270.0)",0,3081.4598000142723,1780.3023000014946,True,False
13,2,179.7660083999799,circle,"(-480.0, -270.0)",0,3100.376399990637,1799.218899977859,True,False
13,2,181.14608169998974,circle,"(-480.0, -270.0)",263.60000000568107,4480.449700000463,3179.2921999876853,False,True
13,3,182.1478974999918,circle,"(-480.0, -270.0)",996.5164999885019,5482.265500002541,1001.8158000020776,True,False
13,3,182.17050340000424,circle,"(-480.0, -270.0)",0,5504.871400014963,1024.4217000145,True,False
13,3,182.1926964999875,circle,"(-480.0, -270.0)",0,5527.064499998232,1046.6147999977693,True,False
13,3,182.21658889998798,circle,"(-480.0, -270.0)",0,5550.95689999871,1070.5071999982465,True,False
13,3,182.23423199998797,circle,"(-480.0, -270.0)",0,5568.599999998696,1088.150299998233,True,False
13,3,182.25427899998613,circle,"(-480.0, -270.0)",0,5588.646999996854,1108.197299996391,True,False
13,3,182.29026059998432,circle,"(-480.0, -270.0)",0,5624.628599995049,1144.1788999945857,True,False
13,3,182.3067788000044,circle,"(-480.0, -270.0)",0,5641.146800015122,1160.6971000146586,True,False
13,3,182.33345539998845,circle,"(-480.0, -270.0)",0,5667.823399999179,1187.373699998716,True,False
13,3,182.35278139999718,circle,"(-480.0, -270.0)",0,5687.149400007911,1206.699700007448,True,False
13,3,182.36813719998463,circle,"(-480.0, -270.0)",0,5702.5051999953575,1222.0554999948945,True,False
13,3,182.3995512999827,circle,"(-480.0, -270.0)",0,5733.919299993431,1253.4695999929681,True,False
13,3,182.4156419999781,circle,"(-480.0, -270.0)",0,5750.009999988833,1269.5602999883704,True,False
13,3,182.43427450000308,circle,"(-480.0, -270.0)",0,5768.6425000138115,1288.1928000133485,True,False
13,3,182.449882099987,circle,"(-480.0, -270.0)",0,5784.250099997735,1303.8003999972716,True,False
13,3,182.46537580000586,circle,"(-480.0, -270.0)",0,5799.743800016586,1319.2941000161227,True,False
13,3,182.48402089998126,circle,"(-480.0, -270.0)",0,5818.388899991987,1337.9391999915242,True,False
13,3,182.50156549998792,circle,"(-480.0, -270.0)",0,5835.933499998646,1355.4837999981828,True,False
13,3,182.51847089998773,circle,"(-480.0, -270.0)",0,5852.83889999846,1372.389199997997,True,False
13,3,182.53286569999182,circle,"(-480.0, -270.0)",0,5867.233700002544,1386.7840000020806,True,False
13,3,182.55033369999728,circle,"(-480.0, -270.0)",0,5884.701700008009,1404.2520000075456,True,False
13,3,182.5644794999971,circle,"(-480.0, -270.0)",0,5898.847500007832,1418.3978000073694,True,False
13,3,182.5816984999983,circle,"(-480.0, -270.0)",0,5916.066500009038,1435.6168000085745,True,False
13,3,182.5998406999861,circle,"(-480.0, -270.0)",0,5934.208699996816,1453.758999996353,True,False
13,3,182.61617669998668,circle,"(-480.0, -270.0)",0,5950.544699997408,1470.0949999969453,True,False
13,3,182.63625700000557,circle,"(-480.0, -270.0)",0,5970.625000016298,1490.175300015835,True,False
13,3,182.65205209999112,circle,"(-480.0, -270.0)",0,5986.420100001851,1505.970400001388,True,False
13,3,182.6829965999932,circle,"(-480.0, -270.0)",0,6017.36460000393,1536.9149000034668,True,False
13,3,182.70019639999373,circle,"(-480.0, -270.0)",0,6034.564400004456,1554.1147000039928,True,False
13,3,182.719373800006,circle,"(-480.0, -270.0)",0,6053.741800016724,1573.2921000162605,True,False
13,3,182.7360015999875,circle,"(-480.0, -270.0)",0,6070.36959999823,1589.919899997767,True,False
13,3,182.75557869998738,circle,"(-480.0, -270.0)",0,6089.946699998109,1609.4969999976456,True,False
13,3,182.77788039998268,circle,"(-480.0, -270.0)",0,6112.248399993405,1631.7986999929417,True,False
13,3,182.7978276000067,circle,"(-480.0, -270.0)",0,6132.19560001744,1651.7459000169765,True,False
13,3,182.81426799998735,circle,"(-480.0, -270.0)",0,6148.635999998078,1668.1862999976147,True,False
13,3,182.83445429999847,circle,"(-480.0, -270.0)",0,6168.822300009197,1688.3726000087336,True,False
13,3,182.86617259998457,circle,"(-480.0, -270.0)",0,6200.540599995293,1720.0908999948297,True,False
13,3,182.87930010000127,circle,"(-480.0, -270.0)",0,6213.668100012001,1733.2184000115376,True,False
13,3,182.89511769998353,circle,"(-480.0, -270.0)",0,6229.485699994257,1749.0359999937937,True,False
13,3,182.9161886999791,circle,"(-480.0, -270.0)",0,6250.556699989829,1770.1069999893662,True,False
13,3,182.93268189998344,circle,"(-480.0, -270.0)",0,6267.049899994163,1786.6001999936998,True,False
13,3,182.94960880000144,circle,"(-480.0, -270.0)",0,6283.976800012169,1803.5271000117064,True,False
14,1,190.2939733999956,circle,"(-480.0, -270.0)",264.56969999708235,2076.2923000147566,2076.2923000147566,False,True
14,2,191.4478736000019,circle,"(-480.0, -270.0)",267.818599997554,3230.192500021076,1153.9002000063192,True,False
14,2,191.46712240000488,circle,"(-480.0, -270.0)",0,3249.4413000240456,1173.149000009289,True,False
14,2,191.49113949999446,circle,"(-480.0, -270.0)",0,3273.4584000136238,1197.1660999988671,True,False
14,2,191.51178999998956,circle,"(-480.0, -270.0)",0,3294.108900008723,1217.8165999939665,True,False
14,2,191.52729289999115,circle,"(-480.0, -270.0)",0,3309.611800010316,1233.3194999955595,True,False
14,2,191.54572269998607,circle,"(-480.0, -270.0)",0,3328.0416000052355,1251.749299990479,True,False
14,2,191.56142220000038,circle,"(-480.0, -270.0)",0,3343.7411000195425,1267.4488000047859,True,False
14,2,191.579342299985,circle,"(-480.0, -270.0)",0,3361.661200004164,1285.3688999894075,True,False
14,2,191.59401939998497,circle,"(-480.0, -270.0)",0,3376.338300004136,1300.0459999893792,True,False
14,2,191.6103599999915,circle,"(-480.0, -270.0)",0,3392.678900010651,1316.3865999958944,True,False
14,2,191.62932649999857,circle,"(-480.0, -270.0)",0,3411.6454000177328,1335.3531000029761,True,False
14,2,191.64472260000184,circle,"(-480.0, -270.0)",0,3427.041500021005,1350.7492000062484,True,False
14,2,191.66120659999433,circle,"(-480.0, -270.0)",0,3443.525500013493,1367.2331999987364,True,False
14,2,191.67671209998662,circle,"(-480.0, -270.0)",0,3459.03100000578,1382.7386999910232,True,False
14,2,191.69378050000523,circle,"(-480.0, -270.0)",0,3476.0994000243954,1399.8071000096388,True,False
14,2,191.71327529998962,circle,"(-480.0, -270.0)",0,3495.5942000087816,1419.301899994025,True,False
14,2,191.72886239999207,circle,"(-480.0, -270.0)",0,3511.1813000112306,1434.888999996474,True,False
14,2,191.74593780000578,circle,"(-480.0, -270.0)",0,3528.25670002494,1451.9644000101835,True,False
14,2,191.76143290000618,circle,"(-480.0, -270.0)",0,3543.7518000253476,1467.459500010591,True,False
14,2,191.78100279998034,circle,"(-480.0, -270.0)",0,3563.3216999995057,1487.029399984749,True,False
14,2,191.7950467999908,circle,"(-480.0, -270.0)",0,3577.3657000099774,1501.0733999952208,True,False
14,2,191.8107770999777,circle,"(-480.0, -270.0)",0,3593.0959999968763,1516.8036999821197,True,False
14,2,191.82948809998925,circle,"(-480.0, -270.0)",0,3611.8070000084117,1535.514699993655,True,False
14,2,191.84401430000435,circle,"(-480.0, -270.0)",0,3626.3332000235096,1550.040900008753,True,False
14,2,191.86401769999065,circle,"(-480.0, -270.0)",0,3646.3366000098176,1570.044299995061,True,False
14,2,191.87881639998523,circle,"(-480.0, -270.0)",0,3661.135300004389,1584.8429999896325,True,False
14,2,191.893929199985,circle,"(-480.0, -270.0)",0,3676.248100004159,1599.9557999894023,True,False
14,2,191.91601169999922,circle,"(-480.0, -270.0)",0,3698.33060001838,1622.0383000036236,True,False
14,2,191.92761529999552,circle,"(-480.0, -270.0)",0,3709.934200014686,1633.6418999999296,True,False
14,2,191.944780299993,circle,"(-480.0, -270.0)",0,3727.0992000121623,1650.8068999974057,True,False
14,2,191.960138800001,circle,"(-480.0, -270.0)",0,3742.457700020168,1666.1654000054114,True,False
14,2,191.97845669998787,circle,"(-480.0, -270.0)",0,3760.7756000070367,1684.48329999228,True,False
14,2,191.99266220000573,circle,"(-480.0, -270.0)",0,3774.9811000248883,1698.6888000101317,True,False
14,2,192.01111910000327,circle,"(-480.0, -270.0)",0,3793.4380000224337,1717.145700007677,True,False
14,2,192.03151509998133,circle,"(-480.0, -270.0)",0,3813.8340000004973,1737.5416999857407,True,False
14,2,192.04786779999267,circle,"(-480.0, -270.0)",0,3830.1867000118364,1753.8943999970797,True,False
14,2,192.06498009999632,circle,"(-480.0, -270.0)",0,3847.2990000154823,1771.0067000007257,True,False
14,2,194.3271324999805,circle,"(-480.0, -270.0)",252.1388999884948,6109.451399999671,4033.159099984914,False,True
14,3,195.34511989998282,circle,"(-480.0, -270.0)",416.02529998635873,7127.438800001983,1017.9874000023119,True,False
14,3,195.36427029999322,circle,"(-480.0, -270.0)",0,7146.589200012386,1037.1378000127152,True,False
14,3,195.3800154000055,circle,"(-480.0, -270.0)",0,7162.334300024668,1052.882900024997,True,False
14,3,195.3942711999989,circle,"(-480.0, -270.0)",0,7176.590100018075,1067.138700018404,True,False
14,3,195.40953799997806,circle,"(-480.0, -270.0)",0,7191.856899997219,1082.4054999975488,True,False
14,3,195.42847220000112,circle,"(-480.0, -270.0)",0,7210.791100020288,1101.3397000206169,True,False
14,3,195.44395620000432,circle,"(-480.0, -270.0)",0,7226.275100023486,1116.823700023815,True,False
14,3,195.46190569997998,circle,"(-480.0, -270.0)",0,7244.224599999143,1134.7731999994721,True,False
14,3,195.47704420000082,circle,"(-480.0, -270.0)",0,7259.363100019982,1149.9117000203114,True,False
14,3,195.493129999988,circle,"(-480.0, -270.0)",0,7275.448900007177,1165.9975000075065,True,False
14,3,195.51194399999804,circle,"(-480.0, -270.0)",0,7294.262900017202,1184.8115000175312,True,False
14,3,195.53115939997952,circle,"(-480.0, -270.0)",0,7313.478299998678,1204.0268999990076,True,False
14,3,195.5462692999863,circle,"(-480.0, -270.0)",0,7328.58820000547,1219.1368000057992,True,False
14,3,195.56002380000427,circle,"(-480.0, -270.0)",0,7342.342700023437,1232.8913000237662,True,False
14,3,195.57462589998613,circle,"(-480.0, -270.0)",0,7356.944800005294,1247.4934000056237,True,False
14,3,195.5949147999927,circle,"(-480.0, -270.0)",0,7377.233700011857,1267.7823000121862,True,False
14,3,195.6105738999904,circle,"(-480.0, -270.0)",0,7392.892800009577,1283.441400009906,True,False
14,3,195.62848149999627,circle,"(-480.0, -270.0)",0,7410.800400015432,1301.3490000157617,True,False
14,3,195.6440983999928,circle,"(-480.0, -270.0)",0,7426.417300011963,1316.965900012292,True,False
14,3,195.6615300999838,circle,"(-480.0, -270.0)",0,7443.849000002956,1334.3976000032853,True,False
14,3,195.67610270000296,circle,"(-480.0, -270.0)",0,7458.42160002212,1348.9702000224497,True,False
14,3,195.69289189999108,circle,"(-480.0, -270.0)",0,7475.210800010245,1365.7594000105746,True,False
14,3,195.71174359999713,circle,"(-480.0, -270.0)",0,7494.062500016298,1384.6111000166275,True,False
14,3,195.72775510000065,circle,"(-480.0, -270.0)",0,7510.074000019813,1400.6226000201423,True,False
14,3,195.74560409999685,circle,"(-480.0, -270.0)",0,7527.923000016017,1418.4716000163462,True,False
14,3,195.76843639998697,circle,"(-480.0, -270.0)",0,7550.755300006131,1441.30390000646,True,False
14,3,195.7820235999825,circle,"(-480.0, -270.0)",0,7564.342500001658,1454.891100001987,True,False
14,3,195.79749239998637,circle,"(-480.0, -270.0)",0,7579.811300005531,1470.3599000058603,True,False
14,3,195.8109426999872,circle,"(-480.0, -270.0)",0,7593.261600006372,1483.810200006701,True,False
14,3,195.82822060000035,circle,"(-480.0, -270.0)",0,7610.539500019513,1501.0881000198424,True,False
14,3,195.84297529998003,circle,"(-480.0, -270.0)",0,7625.294199999189,1515.8427999995183,True,False
14,3,195.86133489999338,circle,"(-480.0, -270.0)",0,7643.653800012544,1534.202400012873,True,False
14,3,195.8767966000014,circle,"(-480.0, -270.0)",0,7659.115500020562,1549.664100020891,True,False
14,3,195.89361619998817,circle,"(-480.0, -270.0)",0,7675.935100007337,1566.483700007666,True,False
14,3,195.91166119999252,circle,"(-480.0, -270.0)",0,7693.980100011686,1584.5287000120152,True,False
14,3,195.92700729999342,circle,"(-480.0, -270.0)",0,7709.326200012583,1599.8748000129126,True,False
14,3,195.9438309999823,circle,"(-480.0, -270.0)",0,7726.149900001474,1616.698500001803,True,False
14,3,195.9586950999801,circle,"(-480.0, -270.0)",0,7741.013999999268,1631.5625999995973,True,False
14,3,195.97553709999193,circle,"(-480.0, -270.0)",0,7757.856000011088,1648.4046000114176,True,False
14,3,195.99442380000255,circle,"(-480.0, -270.0)",0,7776.742700021714,1667.2913000220433,True,False
14,3,196.0091221999901,circle,"(-480.0, -270.0)",0,7791.441100009251,1681.9897000095807,True,False
14,3,196.0301904999942,circle,"(-480.0, -270.0)",0,7812.509400013369,1703.058000013698,True,False
14,3,196.04565580000053,circle,"(-480.0, -270.0)",0,7827.974700019695,1718.5233000200242,True,False
14,3,196.0637163000065,circle,"(-480.0, -270.0)",0,7846.0352000256535,1736.5838000259828,True,False
14,3,196.08932769999956,circle,"(-480.0, -270.0)",0,7871.646600018721,1762.1952000190504,True,False
14,3,196.11003959999653,circle,"(-480.0, -270.0)",0,7892.358500015689,1782.9071000160184,True,False
14,3,197.76027959998464,circle,"(-480.0, -270.0)",268.3979999856092,9542.598500003805,3433.1471000041347,False,True
16,1,218.9013791999896,cross,"(480.0, -270.0)",262.9066999943461,311.24859998817556,311.24859998817556,False,True
16,2,219.38748139998643,t,"(480.0, 270.0)",266.3266999879852,797.3507999849971,486.1021999968216,True,False
16,2,219.40423779998673,t,"(480.0, 270.0)",0,814.1071999853011,502.85859999712557,True,False
16,2,219.41995280000265,t,"(480.0, 270.0)",0,829.8222000012174,518.5736000130419,True,False
16,2,219.4373382999911,t,"(480.0, 270.0)",0,847.2076999896672,535.9591000014916,True,False
16,2,219.45375299997977,t,"(480.0, 270.0)",0,863.6223999783397,552.3737999901641,True,False
16,2,219.47066229998018,t,"(480.0, 270.0)",0,880.5316999787465,569.2830999905709,True,False
16,2,219.4851817000017,t,"(480.0, 270.0)",0,895.0511000002734,583.8025000120979,True,False
16,2,219.50182229999336,t,"(480.0, 270.0)",0,911.691699991934,600.4431000037584,True,False
16,2,219.5205772999907,t,"(480.0, 270.0)",0,930.4466999892611,619.1981000010855,True,False
16,2,219.53534659999423,t,"(480.0, 270.0)",0,945.2159999927972,633.9674000046216,True,False
16,2,219.5558536000026,t,"(480.0, 270.0)",0,965.7230000011623,654.4744000129867,True,False
16,2,219.57217780000065,t,"(480.0, 270.0)",0,982.0471999992151,670.7986000110395,True,False
16,2,219.58880299999146,t,"(480.0, 270.0)",0,998.6723999900278,687.4238000018522,True,False
16,2,219.60239759998512,t,"(480.0, 270.0)",0,1012.2669999836944,701.0183999955188,True,False
16,2,219.61949519999325,t,"(480.0, 270.0)",0,1029.3645999918226,718.1160000036471,True,False
16,2,219.63899409997975,t,"(480.0, 270.0)",0,1048.8634999783244,737.6148999901488,True,False
16,2,219.6538498000009,t,"(480.0, 270.0)",0,1063.7191999994684,752.4706000112928,True,False
16,2,219.6708299999882,t,"(480.0, 270.0)",0,1080.69939998677,769.4507999985944,True,False
16,2,219.6856244999799,t,"(480.0, 270.0)",0,1095.4938999784645,784.2452999902889,True,False
16,2,219.7021160000004,t,"(480.0, 270.0)",0,1111.9853999989573,800.7368000107817,True,False
16,2,219.72031879998394,t,"(480.0, 270.0)",0,1130.1881999825127,818.9395999943372,True,False
16,2,219.73661239998182,t,"(480.0, 270.0)",0,1146.4817999803927,835.2331999922171,True,False
16,2,219.75397130000056,t,"(480.0, 270.0)",0,1163.8406999991275,852.592100010952,True,False
16,2,219.76938329997938,t,"(480.0, 270.0)",0,1179.2526999779511,868.0040999897756,True,False
16,2,219.7874787999899,t,"(480.0, 270.0)",0,1197.3481999884825,886.099600000307,True,False
16,2,219.80203869999968,t,"(480.0, 270.0)",0,1211.9080999982543,900.6595000100788,True,False
16,2,219.81883219999145,t,"(480.0, 270.0)",0,1228.7015999900177,917.4530000018422,True,False
16,2,219.8385301999806,t,"(480.0, 270.0)",0,1248.399599979166,937.1509999909904,True,False
16,2,219.87265249999473,t,"(480.0, 270.0)",0,1282.5218999932986,971.273300005123,True,False
16,2,219.8896773000015,t,"(480.0, 270.0)",0,1299.5467000000644,988.2981000118889,True,False
16,2,219.90553689998342,t,"(480.0, 270.0)",0,1315.406299981987,1004.1576999938115,True,False
16,2,219.9222224999976,t,"(480.0, 270.0)",0,1332.0918999961577,1020.8433000079822,True,False
16,2,219.9370987000002,t,"(480.0, 270.0)",0,1346.9680999987759,1035.7195000106003,True,False
16,2,219.95306390000042,t,"(480.0, 270.0)",0,1362.9332999989856,1051.68470001081,True,False
16,2,219.96857100000489,t,"(480.0, 270.0)",0,1378.4404000034556,1067.19180001528,True,False
16,2,219.98739359999308,t,"(480.0, 270.0)",0,1397.2629999916535,1086.014400003478,True,False
16,2,220.00227789999917,t,"(480.0, 270.0)",0,1412.1472999977414,1100.8987000095658,True,False
16,2,220.01855340000475,t,"(480.0, 270.0)",0,1428.4228000033181,1117.1742000151426,True,False
16,2,220.03698720000102,t,"(480.0, 270.0)",0,1446.8565999995917,1135.6080000114162,True,False
16,2,220.05730960000074,t,"(480.0, 270.0)",0,1467.1789999993052,1155.9304000111297,True,False
16,2,220.07404449998285,t,"(480.0, 270.0)",0,1483.9138999814168,1172.6652999932412,True,False
16,2,220.08762109998497,t,"(480.0, 270.0)",0,1497.4904999835417,1186.241899995366,True,False
16,2,220.1052759999875,t,"(480.0, 270.0)",0,1515.1453999860678,1203.8967999978922,True,False
16,2,220.124164799985,t,"(480.0, 270.0)",0,1534.03419998358,1222.7855999954045,True,False
16,2,220.14114429999609,t,"(480.0, 270.0)",0,1551.0136999946553,1239.7651000064798,True,False
16,2,220.158700400003,t,"(480.0, 270.0)",0,1568.569800001569,1257.3212000133935,True,False
16,2,220.17553989999578,t,"(480.0, 270.0)",0,1585.4092999943532,1274.1607000061776,True,False
16,2,220.19893149999552,t,"(480.0, 270.0)",0,1608.800899994094,1297.5523000059184,True,False
16,2,220.21795150000253,t,"(480.0, 270.0)",0,1627.8209000010975,1316.572300012922,True,False
16,2,220.2371130999818,t,"(480.0, 270.0)",0,1646.9824999803677,1335.7338999921922,True,False
16,2,220.25277409999399,t,"(480.0, 270.0)",0,1662.643499992555,1351.3949000043795,True,False
16,2,220.2706499999913,t,"(480.0, 270.0)",0,1680.519399989862,1369.2708000016864,True,False
16,2,220.28419899998698,t,"(480.0, 270.0)",0,1694.0683999855537,1382.8197999973781,True,False
16,2,220.30035449998104,t,"(480.0, 270.0)",0,1710.22389997961,1398.9752999914344,True,False
16,2,220.32048369999393,t,"(480.0, 270.0)",0,1730.3530999924988,1419.1045000043232,True,False
16,2,220.33667609997792,t,"(480.0, 270.0)",0,1746.5454999764916,1435.296899988316,True,False
16,2,220.3528133999789,t,"(480.0, 270.0)",0,1762.6827999774832,1451.4341999893077,True,False
16,2,220.36812400000053,t,"(480.0, 270.0)",0,1777.9933999991044,1466.7448000109289,True,False
16,2,220.38602979999268,t,"(480.0, 270.0)",0,1795.8991999912541,1484.6506000030786,True,False
16,2,220.40116069998476,t,"(480.0, 270.0)",0,1811.030099983327,1499.7814999951515,True,False
16,2,220.4173451999959,t,"(480.0, 270.0)",0,1827.2145999944769,1515.9660000063013,True,False
16,2,220.43641140000545,t,"(480.0, 270.0)",0,1846.280800004024,1535.0322000158485,True,False
16,2,220.45164600000135,t,"(480.0, 270.0)",0,1861.5153999999166,1550.266800011741,True,False
16,2,220.4708290999988,t,"(480.0, 270.0)",0,1880.6984999973793,1569.4499000092037,True,False
16,2,220.4860531000013,t,"(480.0, 270.0)",0,1895.9224999998696,1584.673900011694,True,False
16,2,220.50228289997904,t,"(480.0, 270.0)",0,1912.1522999776062,1600.9036999894306,True,False
16,2,220.52141419998952,t,"(480.0, 270.0)",0,1931.2835999880917,1620.0349999999162,True,False
16,2,220.53705379998428,t,"(480.0, 270.0)",0,1946.923199982848,1635.6745999946725,True,False
16,2,220.55356689999462,t,"(480.0, 270.0)",0,1963.436299993191,1652.1877000050154,True,False
16,2,220.57017029999406,t,"(480.0, 270.0)",0,1980.0396999926306,1668.791100004455,True,False
16,2,220.5872148000053,t,"(480.0, 270.0)",0,1997.0842000038829,1685.8356000157073,True,False
16,2,220.60167649999494,t,"(480.0, 270.0)",0,2011.5458999935072,1700.2973000053316,True,False
16,2,220.61868250000407,t,"(480.0, 270.0)",0,2028.5519000026397,1717.3033000144642,True,False
16,2,220.63686979998602,t,"(480.0, 270.0)",0,2046.7391999845859,1735.4905999964103,True,False
16,2,220.65356869998504,t,"(480.0, 270.0)",0,2063.438099983614,1752.1894999954384,True,False
16,2,220.67029919999186,t,"(480.0, 270.0)",0,2080.1685999904294,1768.9200000022538,True,False
16,2,222.4377336000034,circle,"(-480.0, -270.0)",251.419000007445,3847.603000001982,3536.3544000138063,False,True
16,3,225.2682145999861,circle,"(-480.0, -270.0)",252.08750000456348,6678.083999984665,2830.480999982683,False,True
16,4,229.91767470000195,circle,"(-480.0, -270.0)",250.6996000010986,11327.544100000523,4649.460100015858,False,True
17,1,234.32905239998945,t,"(480.0, 270.0)",263.66299999062903,554.8995999852195,554.8995999852195,False,True
17,2,234.8140815999941,star,"(-480.0, 270.0)",264.62390000233427,1039.928799989866,485.02920000464655,True,False
17,2,234.8363410999882,star,"(-480.0, 270.0)",0,1062.1882999839727,507.28869999875315,True,False
17,2,234.84989719997975,star,"(-480.0, 270.0)",0,1075.7443999755196,520.8447999903001,True,False
17,2,234.86715320000076,star,"(-480.0, 270.0)",0,1093.0003999965265,538.100800011307,True,False
17,2,234.8805522999901,star,"(-480.0, 270.0)",0,1106.399499985855,551.4999000006355,True,False
17,2,234.89732560000266,star,"(-480.0, 270.0)",0,1123.1727999984287,568.2732000132091,True,False
17,2,234.91595439999946,star,"(-480.0, 270.0)",0,1141.8015999952331,586.9020000100136,True,False
17,2,234.93134869998903,star,"(-480.0, 270.0)",0,1157.1958999847993,602.2962999995798,True,False
17,2,234.94993869998143,star,"(-480.0, 270.0)",0,1175.7858999771997,620.8862999919802,True,False
17,2,234.9637327999808,star,"(-480.0, 270.0)",0,1189.5799999765586,634.6803999913391,True,False
17,2,234.9805223000003,star,"(-480.0, 270.0)",0,1206.3694999960717,651.4699000108521,True,False
17,2,234.99844619998476,star,"(-480.0, 270.0)",0,1224.2933999805246,669.393799995305,True,False
17,2,235.01452399999835,star,"(-480.0, 270.0)",0,1240.3711999941152,685.4716000088956,True,False
17,2,235.03368130000308,star,"(-480.0, 270.0)",0,1259.5284999988507,704.6289000136312,True,False
17,2,235.04883809998864,star,"(-480.0, 270.0)",0,1274.6852999844123,719.7856999991927,True,False
17,2,235.06634689998464,star,"(-480.0, 270.0)",0,1292.1940999804065,737.2944999951869,True,False
17,2,235.07987950000097,star,"(-480.0, 270.0)",0,1305.7266999967396,750.8271000115201,True,False
17,2,235.09707970000454,star,"(-480.0, 270.0)",0,1322.9269000003114,768.0273000150919,True,False
17,2,235.11588420000044,star,"(-480.0, 270.0)",0,1341.7313999962062,786.8318000109866,True,False
17,2,235.13143229999696,star,"(-480.0, 270.0)",0,1357.2794999927282,802.3799000075087,True,False
17,2,235.14979589998256,star,"(-480.0, 270.0)",0,1375.6430999783333,820.7434999931138,True,False
17,2,235.16270270000678,star,"(-480.0, 270.0)",0,1388.5499000025447,833.6503000173252,True,False
17,2,235.18173189999652,star,"(-480.0, 270.0)",0,1407.5790999922901,852.6795000070706,True,False
17,2,235.19949269999051,star,"(-480.0, 270.0)",0,1425.3398999862839,870.4403000010643,True,False
17,2,235.2145831999951,star,"(-480.0, 270.0)",0,1440.4303999908734,885.5308000056539,True,False
17,2,235.2327196999977,star,"(-480.0, 270.0)",0,1458.566899993457,903.6673000082374,True,False
17,2,235.24722920000204,star,"(-480.0, 270.0)",0,1473.076399997808,918.1768000125885,True,False
17,2,235.2665003000002,star,"(-480.0, 270.0)",0,1492.347499995958,937.4479000107385,True,False
17,2,235.28178570000455,star,"(-480.0, 270.0)",0,1507.632900000317,952.7333000150975,True,False
17,2,235.29802429999108,star,"(-480.0, 270.0)",0,1523.8714999868535,968.9719000016339,True,False
17,2,235.31505740000284,star,"(-480.0, 270.0)",0,1540.904599998612,986.0050000133924,True,False
17,2,235.33095929998672,star,"(-480.0, 270.0)",0,1556.8064999824855,1001.906899997266,True,False
17,2,235.34956579998834,star,"(-480.0, 270.0)",0,1575.4129999841098,1020.5133999988902,True,False
17,2,235.36448779999046,star,"(-480.0, 270.0)",0,1590.3349999862257,1035.4354000010062,True,False
17,2,235.36914739999338,t,"(480.0, 270.0)",250.88119998690672,1594.9945999891497,1040.0950000039302,True,False
17,2,235.38349509998807,t,"(480.0, 270.0)",0,1609.3422999838367,1054.4426999986172,True,False
17,2,235.40034930000547,t,"(480.0, 270.0)",0,1626.1965000012424,1071.2969000160228,True,False
17,2,235.4165379999904,t,"(480.0, 270.0)",0,1642.3851999861654,1087.4856000009459,True,False
17,2,235.4329435999971,t,"(480.0, 270.0)",0,1658.7907999928575,1103.891200007638,True,False
17,2,235.44815369998105,t,"(480.0, 270.0)",0,1674.000899976818,1119.1012999915984,True,False
17,2,235.46568130000378,t,"(480.0, 270.0)",0,1691.5284999995492,1136.6289000143297,True,False
17,2,235.48001040000236,t,"(480.0, 270.0)",0,1705.8575999981258,1150.9580000129063,True,False
17,2,235.4970869999961,t,"(480.0, 270.0)",0,1722.9341999918688,1168.0346000066493,True,False
17,2,235.51732569999876,t,"(480.0, 270.0)",0,1743.1728999945335,1188.273300009314,True,False
17,2,235.5498169999919,t,"(480.0, 270.0)",0,1775.6641999876592,1220.7646000024397,True,False
17,2,235.56406750000315,t,"(480.0, 270.0)",0,1789.914699998917,1235.0151000136975,True,False
17,2,235.57862109999405,t,"(480.0, 270.0)",0,1804.4682999898214,1249.5687000046019,True,False
17,2,235.60307310000644,t,"(480.0, 270.0)",0,1828.9203000022098,1274.0207000169903,True,False
17,2,235.6165315999824,t,"(480.0, 270.0)",0,1842.378799978178,1287.4791999929585,True,False
17,2,235.63216399998055,t,"(480.0, 270.0)",0,1858.0111999763176,1303.111599991098,True,False
17,2,235.64529479999328,t,"(480.0, 270.0)",0,1871.1419999890495,1316.24240000383,True,False
17,2,235.66417939998792,t,"(480.0, 270.0)",0,1890.0265999836847,1335.1269999984652,True,False
17,2,235.679106399999,t,"(480.0, 270.0)",0,1904.9535999947693,1350.0540000095498,True,False
17,2,235.69582339999033,t,"(480.0, 270.0)",0,1921.6705999861006,1366.771000000881,True,False
17,2,235.71515569998883,t,"(480.0, 270.0)",0,1941.0028999845963,1386.1032999993768,True,False
17,2,235.73255220000283,t,"(480.0, 270.0)",0,1958.3993999985978,1403.4998000133783,True,False
17,2,235.7505404999829,t,"(480.0, 270.0)",0,1976.387699978659,1421.4880999934394,True,False
17,2,235.76591279997956,t,"(480.0, 270.0)",0,1991.7599999753293,1436.8603999901097,True,False
17,2,235.78242010000395,t,"(480.0, 270.0)",0,2008.2672999997158,1453.3677000144962,True,False
17,2,235.80048700000043,t,"(480.0, 270.0)",0,2026.3341999961995,1471.43460001098,True,False
17,2,235.81739169999491,t,"(480.0, 270.0)",0,2043.2388999906834,1488.3393000054639,True,False
17,2,235.8353569000028,t,"(480.0, 270.0)",0,2061.2040999985766,1506.304500013357,True,False
17,2,235.855573799985,t,"(480.0, 270.0)",0,2081.4209999807645,1526.521399995545,True,False
17,2,235.87033380000503,t,"(480.0, 270.0)",0,2096.181000000797,1541.2814000155777,True,False
17,2,235.89374739999766,t,"(480.0, 270.0)",0,2119.594599993434,1564.6950000082143,True,False
17,2,235.91564709998784,t,"(480.0, 270.0)",0,2141.4942999836057,1586.5946999983862,True,False
17,2,235.93239800000447,t,"(480.0, 270.0)",0,2158.2452000002377,1603.3456000150181,True,False
17,2,235.950651799998,t,"(480.0, 270.0)",0,2176.4989999937825,1621.599400008563,True,False
17,2,235.96506839999347,t,"(480.0, 270.0)",0,2190.915599989239,1636.0160000040196,True,False
17,2,235.98140439999406,t,"(480.0, 270.0)",0,2207.2515999898314,1652.352000004612,True,False
17,2,236.00069689998054,t,"(480.0, 270.0)",0,2226.5440999763086,1671.644499991089,True,False
17,2,236.01617079999414,t,"(480.0, 270.0)",0,2242.017999989912,1687.1184000046924,True,False
17,2,236.04353359999368,t,"(480.0, 270.0)",0,2269.380799989449,1714.4812000042293,True,False
17,2,236.06296969999676,t,"(480.0, 270.0)",0,2288.8168999925256,1733.917300007306,True,False
17,2,236.08221999998204,t,"(480.0, 270.0)",0,2308.0671999778133,1753.1675999925938,True,False
17,2,236.09761619998608,t,"(480.0, 270.0)",0,2323.463399981847,1768.5637999966275,True,False
17,2,236.7975830999785,circle,"(-480.0, -270.0)",250.44119998347014,3023.4302999742795,2468.53069998906,False,True
17,3,239.58772439998575,circle,"(-480.0, -270.0)",291.2083999835886,5813.571599981515,2790.1413000072353,False,True
17,4,244.2305226000026,circle,"(-480.0, -270.0)",251.22110001393594,10456.369799998356,4642.798200016841,False,True
18,1,248.57894499998656,t,"(480.0, 270.0)",253.81130000459962,480.29149998910725,480.29149998910725,False,True
18,2,249.0615031000052,star,"(-480.0, 270.0)",266.25710001098923,962.8496000077575,482.5581000186503,True,False
18,2,249.08107849999215,star,"(-480.0, 270.0)",0,982.4249999946915,502.1335000055842,True,False
18,2,249.09947519999696,star,"(-480.0, 270.0)",0,1000.8216999995057,520.5302000103984,True,False
18,2,249.11904580000555,star,"(-480.0, 270.0)",0,1020.3923000080977,540.1008000189904,True,False
18,2,249.14349109999603,star,"(-480.0, 270.0)",0,1044.8375999985728,564.5461000094656,True,False
18,2,249.16264609998325,star,"(-480.0, 270.0)",0,1063.992599985795,583.7010999966878,True,False
18,2,249.18150330000208,star,"(-480.0, 270.0)",0,1082.8498000046238,602.5583000155166,True,False
18,2,249.21035079998546,star,"(-480.0, 270.0)",0,1111.697299988009,631.4057999989018,True,False
18,2,249.22668989998056,star,"(-480.0, 270.0)",0,1128.0363999831025,647.7448999939952,True,False
18,2,249.2422891999886,star,"(-480.0, 270.0)",0,1143.6356999911368,663.3442000020295,True,False
18,2,249.25974350000615,star,"(-480.0, 270.0)",0,1161.0900000086986,680.7985000195913,True,False
18,2,249.2765839000058,star,"(-480.0, 270.0)",0,1177.9304000083357,697.6389000192285,True,False
18,2,249.2944377999811,star,"(-480.0, 270.0)",0,1195.784299983643,715.4927999945357,True,False
18,2,249.30934269999852,star,"(-480.0, 270.0)",0,1210.6892000010703,730.397700011963,True,False
18,2,249.32482089998666,star,"(-480.0, 270.0)",0,1226.1673999892082,745.875900000101,True,False
18,2,249.34429700000328,star,"(-480.0, 270.0)",0,1245.6435000058264,765.3520000167191,True,False
18,2,249.35987039998872,star,"(-480.0, 270.0)",0,1261.2168999912683,780.925400002161,True,False
18,2,249.37879329998395,star,"(-480.0, 270.0)",0,1280.1397999865003,799.848299997393,True,False
18,2,249.3955412999785,star,"(-480.0, 270.0)",0,1296.8877999810502,816.5962999919429,True,False
18,2,249.41451249999227,star,"(-480.0, 270.0)",0,1315.8589999948163,835.567500005709,True,False
18,2,249.43138259998523,star,"(-480.0, 270.0)",0,1332.7290999877732,852.437599998666,True,False
18,2,249.45632629998727,star,"(-480.0, 270.0)",0,1357.672799989814,877.3813000007067,True,False
18,2,249.4768317999842,star,"(-480.0, 270.0)",0,1378.1782999867573,897.8867999976501,True,False
18,2,249.49621029998525,star,"(-480.0, 270.0)",0,1397.5567999877967,917.2652999986894,True,False
18,2,249.51615209999727,star,"(-480.0, 270.0)",0,1417.498599999817,937.2071000107098,True,False
18,2,249.53120880000643,star,"(-480.0, 270.0)",0,1432.5553000089712,952.263800019864,True,False
18,2,249.55955899998662,star,"(-480.0, 270.0)",0,1460.9054999891669,980.6140000000596,True,False
18,2,249.57770860000164,star,"(-480.0, 270.0)",0,1479.0551000041887,998.7636000150815,True,False
18,2,249.5951642,star,"(-480.0, 270.0)",0,1496.5107000025455,1016.2192000134382,True,False
18,2,249.61171589998412,star,"(-480.0, 270.0)",0,1513.0623999866657,1032.7708999975584,True,False
18,2,249.63994100000127,star,"(-480.0, 270.0)",0,1541.2875000038184,1060.9960000147112,True,False
18,2,249.68111029997817,star,"(-480.0, 270.0)",0,1582.4567999807186,1102.1652999916114,True,False
18,2,249.69821529998444,star,"(-480.0, 270.0)",0,1599.5617999869864,1119.2702999978792,True,False
18,2,249.72236970000085,star,"(-480.0, 270.0)",0,1623.7162000034004,1143.4247000142932,True,False
18,2,249.7257682000054,t,"(480.0, 270.0)",266.765900014434,1627.114700007951,1146.8232000188436,True,False
18,2,249.75014449999435,t,"(480.0, 270.0)",0,1651.490999996895,1171.1995000077877,True,False
18,2,249.76598399999784,t,"(480.0, 270.0)",0,1667.3305000003893,1187.039000011282,True,False
18,2,249.7946576999966,t,"(480.0, 270.0)",0,1696.0041999991518,1215.7127000100445,True,False
18,2,249.81054279999807,t,"(480.0, 270.0)",0,1711.889300000621,1231.5978000115138,True,False
18,2,249.82885029999306,t,"(480.0, 270.0)",0,1730.1967999956105,1249.9053000065032,True,False
18,2,249.84391339999274,t,"(480.0, 270.0)",0,1745.2598999952897,1264.9684000061825,True,False
18,2,249.86130789999152,t,"(480.0, 270.0)",0,1762.6543999940623,1282.362900004955,True,False
18,2,249.8818898999889,t,"(480.0, 270.0)",0,1783.2363999914378,1302.9449000023305,True,False
18,2,249.90025679999962,t,"(480.0, 270.0)",0,1801.6033000021707,1321.3118000130635,True,False
18,2,249.91507289998117,t,"(480.0, 270.0)",0,1816.4193999837153,1336.127899994608,True,False
18,2,249.9441438000067,t,"(480.0, 270.0)",0,1845.49030000926,1365.1988000201527,True,False
18,2,249.96013369999127,t,"(480.0, 270.0)",0,1861.4801999938209,1381.1887000047136,True,False
18,2,249.97747069998877,t,"(480.0, 270.0)",0,1878.8171999913175,1398.5257000022102,True,False
18,2,249.99511279998114,t,"(480.0, 270.0)",0,1896.4592999836896,1416.1677999945823,True,False
18,2,250.01053159998264,t,"(480.0, 270.0)",0,1911.8780999851879,1431.5865999960806,True,False
18,2,250.02761859999737,t,"(480.0, 270.0)",0,1928.965099999914,1448.6736000108067,True,False
18,2,250.04269329999806,t,"(480.0, 270.0)",0,1944.0398000006098,1463.7483000115026,True,False
18,2,250.05957359998138,t,"(480.0, 270.0)",0,1960.9200999839231,1480.6285999948159,True,False
18,2,250.0775935999991,t,"(480.0, 270.0)",0,1978.940100001637,1498.6486000125296,True,False
18,2,250.0963542999816,t,"(480.0, 270.0)",0,1997.700799984159,1517.4092999950517,True,False
18,2,250.1128338999988,t,"(480.0, 270.0)",0,2014.1804000013508,1533.8889000122435,True,False
18,2,250.129065599991,t,"(480.0, 270.0)",0,2030.4120999935549,1550.1206000044476,True,False
18,2,250.14354960000492,t,"(480.0, 270.0)",0,2044.8961000074632,1564.604600018356,True,False
18,2,250.16126039999654,t,"(480.0, 270.0)",0,2062.606899999082,1582.3154000099748,True,False
18,2,250.19376409999677,t,"(480.0, 270.0)",0,2095.110599999316,1614.8191000102088,True,False
18,2,250.21194660000037,t,"(480.0, 270.0)",0,2113.2931000029203,1633.001600013813,True,False
18,2,250.22886339999968,t,"(480.0, 270.0)",0,2130.209900002228,1649.9184000131208,True,False
18,2,250.2438012000057,t,"(480.0, 270.0)",0,2145.1477000082377,1664.8562000191305,True,False
18,2,250.262802799989,t,"(480.0, 270.0)",0,2164.14929999155,1683.8578000024427,True,False
18,2,250.2775765999977,t,"(480.0, 270.0)",0,2178.9231000002474,1698.63160001114,True,False
18,2,250.29641529999208,t,"(480.0, 270.0)",0,2197.7617999946233,1717.470300005516,True,False
18,2,250.31154569998034,t,"(480.0, 270.0)",0,2212.892199982889,1732.6006999937817,True,False
18,2,250.32844019998447,t,"(480.0, 270.0)",0,2229.7866999870166,1749.4951999979094,True,False
18,2,250.34466760000214,t,"(480.0, 270.0)",0,2246.014100004686,1765.7226000155788,True,False
18,2,250.79290000000037,star,"(-480.0, 270.0)",266.71470000292175,2694.2465000029188,2213.9550000138115,False,True
18,3,251.7938473999966,star,"(-480.0, 270.0)",997.1800000057556,3695.19389999914,1000.9473999962211,True,False
18,3,251.81467170000542,star,"(-480.0, 270.0)",0,3716.018200007966,1021.771700005047,True,False
18,3,251.8298453000025,star,"(-480.0, 270.0)",0,3731.1918000050355,1036.9453000021167,True,False
18,3,251.85579529998358,star,"(-480.0, 270.0)",0,3757.1417999861296,1062.8952999832109,True,False
18,3,251.8757893999864,star,"(-480.0, 270.0)",0,3777.1358999889344,1082.8893999860156,True,False
18,3,251.89329829998314,star,"(-480.0, 270.0)",0,3794.64479998569,1100.3982999827713,True,False
18,3,251.91168629997992,star,"(-480.0, 270.0)",0,3813.032799982466,1118.786299979547,True,False
18,3,251.94413289998192,star,"(-480.0, 270.0)",0,3845.4793999844696,1151.2328999815509,True,False
18,3,251.96041249998962,star,"(-480.0, 270.0)",0,3861.758999992162,1167.5124999892432,True,False
18,3,251.97867749998113,star,"(-480.0, 270.0)",0,3880.0239999836776,1185.7774999807589,True,False
18,3,251.99369040000602,star,"(-480.0, 270.0)",0,3895.036900008563,1200.7904000056442,True,False
18,3,252.0086333999934,star,"(-480.0, 270.0)",0,3909.9798999959603,1215.7333999930415,True,False
18,3,252.02747010000166,star,"(-480.0, 270.0)",0,3928.816600004211,1234.5701000012923,True,False
18,3,252.04396209999686,star,"(-480.0, 270.0)",0,3945.3085999994073,1251.0620999964885,True,False
18,3,252.058174100006,star,"(-480.0, 270.0)",0,3959.5206000085454,1265.2741000056267,True,False
18,3,252.0771787999838,star,"(-480.0, 270.0)",0,3978.5252999863587,1284.27879998344,True,False
18,3,252.0945879999781,star,"(-480.0, 270.0)",0,3995.934499980649,1301.6879999777302,True,False
18,3,252.10984439999447,star,"(-480.0, 270.0)",0,4011.1908999970183,1316.9443999940995,True,False
18,3,252.1273458999931,star,"(-480.0, 270.0)",0,4028.6923999956343,1334.4458999927156,True,False
18,3,252.14461129999836,star,"(-480.0, 270.0)",0,4045.957800000906,1351.7112999979872,True,False
18,3,252.15873799999827,star,"(-480.0, 270.0)",0,4060.084500000812,1365.8379999978933,True,False
18,3,252.1783508999797,star,"(-480.0, 270.0)",0,4079.697399982251,1385.4508999793325,True,False
18,3,252.19271999999182,star,"(-480.0, 270.0)",0,4094.066499994369,1399.8199999914505,True,False
18,3,252.2084619999805,star,"(-480.0, 270.0)",0,4109.808499983046,1415.5619999801274,True,False
18,3,252.22614299997804,star,"(-480.0, 270.0)",0,4127.489499980584,1433.242999977665,True,False
18,3,252.24228679999942,star,"(-480.0, 270.0)",0,4143.633300001966,1449.386799999047,True,False
18,3,252.2573213999858,star,"(-480.0, 270.0)",0,4158.667899988359,1464.42139998544,True,False
18,3,252.2734563999984,star,"(-480.0, 270.0)",0,4174.802900000941,1480.5563999980222,True,False
18,3,252.29250759998104,star,"(-480.0, 270.0)",0,4193.854099983582,1499.6075999806635,True,False
18,3,252.30728320000344,star,"(-480.0, 270.0)",0,4208.629700005986,1514.383200003067,True,False
18,3,252.32317109999713,star,"(-480.0, 270.0)",0,4224.517599999672,1530.271099996753,True,False
18,3,252.34169269999256,star,"(-480.0, 270.0)",0,4243.03919999511,1548.792699992191,True,False
18,3,252.35815210000146,star,"(-480.0, 270.0)",0,4259.498600004008,1565.2521000010893,True,False
18,3,252.3764881999814,star,"(-480.0, 270.0)",0,4277.834699983941,1583.5881999810226,True,False
18,3,252.39226520000375,star,"(-480.0, 270.0)",0,4293.611700006295,1599.3652000033762,True,False
18,3,252.4100705999881,star,"(-480.0, 270.0)",0,4311.417099990649,1617.1705999877304,True,False
18,3,252.42548730000271,star,"(-480.0, 270.0)",0,4326.833800005261,1632.587300002342,True,False
18,3,252.44065819997923,star,"(-480.0, 270.0)",0,4342.004699981771,1647.7581999788526,True,False
18,3,252.45880140000372,star,"(-480.0, 270.0)",0,4360.147900006268,1665.9014000033494,True,False
18,3,252.47535949997837,star,"(-480.0, 270.0)",0,4376.7059999809135,1682.4594999779947,True,False
18,3,252.49292789999163,star,"(-480.0, 270.0)",0,4394.274399994174,1700.0278999912553,True,False
18,3,252.5079405999859,star,"(-480.0, 270.0)",0,4409.287099988433,1715.0405999855138,True,False
18,3,252.5268919999944,star,"(-480.0, 270.0)",0,4428.238499996951,1733.991999994032,True,False
18,3,252.53989230000298,star,"(-480.0, 270.0)",0,4441.238800005522,1746.9923000026029,True,False
18,3,252.55897209999966,star,"(-480.0, 270.0)",0,4460.318600002211,1766.0720999992918,True,False
18,3,252.5724852999847,star,"(-480.0, 270.0)",0,4473.831799987238,1779.5852999843191,True,False
18,3,253.74640879998333,star,"(-480.0, 270.0)",253.82990000071004,5647.755299985874,2953.5087999829557,False,True
18,4,256.70974180000485,star,"(-480.0, 270.0)",266.5933000098448,8611.088300007395,2963.333000021521,False,True
