trial_num,selection_num,timestamp,shape,position,fixation_duration_ms,rt_from_trial_start_ms,rt_from_previous_selection_ms,queued_selection,was_executed
13,1,1102.0182966000284,circle,"(-480.0, -270.0)",262.3691000044346,262.4010000145063,262.4010000145063,False,True
13,2,1102.2866695999983,circle,"(-480.0, -270.0)",264.1390999779105,530.7739999843761,268.37299996986985,True,False
13,2,1102.3047741000191,circle,"(-480.0, -270.0)",0,548.8785000052303,286.477499990724,True,False
13,2,1102.3196088999975,circle,"(-480.0, -270.0)",0,563.7132999836467,301.31229996914044,True,False
13,2,1102.338165400026,circle,"(-480.0, -270.0)",0,582.2698000119999,319.8687999974936,True,False
13,2,1102.3532630000263,circle,"(-480.0, -270.0)",0,597.3674000124447,334.9663999979384,True,False
13,2,1102.3689032000257,circle,"(-480.0, -270.0)",0,613.0076000117697,350.6065999972634,True,False
13,2,1102.3860448999912,circle,"(-480.0, -270.0)",0,630.1492999773473,367.748299962841,True,False
13,2,1102.4007142999908,circle,"(-480.0, -270.0)",0,644.818699976895,382.4176999623887,True,False
13,2,1102.4195415999857,circle,"(-480.0, -270.0)",0,663.6459999717772,401.2449999572709,True,False
13,2,1102.4338792000199,circle,"(-480.0, -270.0)",0,677.9836000059731,415.58259999146685,True,False
13,2,1102.4524376000045,circle,"(-480.0, -270.0)",0,696.5419999905862,434.1409999760799,True,False
13,2,1102.4683071000036,circle,"(-480.0, -270.0)",0,712.4114999896847,450.0104999751784,True,False
13,2,1102.485192299995,circle,"(-480.0, -270.0)",0,729.2966999812052,466.8956999666989,True,False
13,2,1102.5009324999992,circle,"(-480.0, -270.0)",0,745.0368999852799,482.6358999707736,True,False
13,2,1102.5196761999978,circle,"(-480.0, -270.0)",0,763.7805999838747,501.3795999693684,True,False
13,2,1102.5353808000218,circle,"(-480.0, -270.0)",0,779.4852000079118,517.0841999934055,True,False
13,2,1102.5530833000084,circle,"(-480.0, -270.0)",0,797.187699994538,534.7866999800317,True,False
13,2,1102.5690084000234,circle,"(-480.0, -270.0)",0,813.1128000095487,550.7117999950424,True,False
13,2,1102.5861780000268,circle,"(-480.0, -270.0)",0,830.2824000129476,567.8813999984413,True,False
13,2,1102.6022324999794,circle,"(-480.0, -270.0)",0,846.3368999655358,583.9358999510296,True,False
13,2,1102.6197434000205,circle,"(-480.0, -270.0)",0,863.8478000066243,601.446799992118,True,False
13,2,1102.635576599976,circle,"(-480.0, -270.0)",0,879.6809999621473,617.279999947641,True,False
13,2,1102.6527698999853,circle,"(-480.0, -270.0)",0,896.8742999713868,634.4732999568805,True,False
13,2,1102.6678091000067,circle,"(-480.0, -270.0)",0,911.9134999928065,649.5124999783002,True,False
13,2,1102.6856080999714,circle,"(-480.0, -270.0)",0,929.7124999575317,667.3114999430254,True,False
13,2,1102.7003028999898,circle,"(-480.0, -270.0)",0,944.4072999758646,682.0062999613583,True,False
13,2,1102.7194077000022,circle,"(-480.0, -270.0)",0,963.5120999882929,701.1110999737866,True,False
13,2,1102.7354490999714,circle,"(-480.0, -270.0)",0,979.5534999575466,717.1524999430403,True,False
13,2,1102.752047499991,circle,"(-480.0, -270.0)",0,996.1518999771215,733.7508999626152,True,False
13,2,1102.7685114999767,circle,"(-480.0, -270.0)",0,1012.6158999628387,750.2148999483325,True,False
13,2,1102.7860335999867,circle,"(-480.0, -270.0)",0,1030.1379999727942,767.7369999582879,True,False
13,2,1102.8017714999733,circle,"(-480.0, -270.0)",0,1045.8758999593556,783.4748999448493,True,False
13,2,1102.8191448000143,circle,"(-480.0, -270.0)",0,1063.2492000004277,800.8481999859214,True,False
13,2,1102.8350760000176,circle,"(-480.0, -270.0)",0,1079.180400003679,816.7793999891728,True,False
13,2,1102.8523748000152,circle,"(-480.0, -270.0)",0,1096.4792000013404,834.0781999868341,True,False
13,2,1102.8686916999868,circle,"(-480.0, -270.0)",0,1112.7960999729112,850.3950999584049,True,False
13,2,1102.8853317999747,circle,"(-480.0, -270.0)",0,1129.4361999607645,867.0351999462582,True,False
13,2,1102.9008787000203,circle,"(-480.0, -270.0)",0,1144.9831000063568,882.5820999918506,True,False
13,2,1102.918973300024,circle,"(-480.0, -270.0)",0,1163.0777000100352,900.6766999955289,True,False
13,2,1102.9346210000222,circle,"(-480.0, -270.0)",0,1178.7254000082612,916.3243999937549,True,False
13,2,1102.9524948999751,circle,"(-480.0, -270.0)",0,1196.5992999612354,934.1982999467291,True,False
13,2,1102.967887100007,circle,"(-480.0, -270.0)",0,1211.9914999930188,949.5904999785125,True,False
13,2,1102.9853984999936,circle,"(-480.0, -270.0)",0,1229.5028999797069,967.1018999652006,True,False
13,2,1103.0007438000175,circle,"(-480.0, -270.0)",0,1244.8482000036165,982.4471999891102,True,False
13,2,1103.0188643999863,circle,"(-480.0, -270.0)",0,1262.968799972441,1000.5677999579348,True,False
13,2,1103.0349377000239,circle,"(-480.0, -270.0)",0,1279.042100009974,1016.6410999954678,True,False
13,2,1103.0540404000203,circle,"(-480.0, -270.0)",0,1298.144800006412,1035.7437999919057,True,False
13,2,1103.068500399997,circle,"(-480.0, -270.0)",0,1312.6047999830917,1050.2037999685854,True,False
13,2,1103.0856347000226,circle,"(-480.0, -270.0)",0,1329.7391000087373,1067.338099994231,True,False
13,2,1103.101197800017,circle,"(-480.0, -270.0)",0,1345.3022000030614,1082.9011999885552,True,False
13,2,1103.1191286999965,circle,"(-480.0, -270.0)",0,1363.233099982608,1100.8320999681018,True,False
13,2,1103.1374258000287,circle,"(-480.0, -270.0)",0,1381.5302000148222,1119.129200000316,True,False
13,2,1103.1522775000194,circle,"(-480.0, -270.0)",0,1396.3819000055082,1133.980899991002,True,False
13,2,1103.1676964000217,circle,"(-480.0, -270.0)",0,1411.800800007768,1149.3997999932617,True,False
13,2,1103.1857712999918,circle,"(-480.0, -270.0)",0,1429.8756999778561,1167.4746999633498,True,False
13,2,1103.2014497999917,circle,"(-480.0, -270.0)",0,1445.554199977778,1183.1531999632716,True,False
13,2,1103.2183605000027,circle,"(-480.0, -270.0)",0,1462.464899988845,1200.0638999743387,True,False
13,2,1103.2345731999958,circle,"(-480.0, -270.0)",0,1478.6775999818929,1216.2765999673866,True,False
13,2,1103.2520923999837,circle,"(-480.0, -270.0)",0,1496.1967999697663,1233.79579995526,True,False
13,2,1103.2677170999814,circle,"(-480.0, -270.0)",0,1511.821499967482,1249.4204999529757,True,False
13,2,1103.2856939000194,circle,"(-480.0, -270.0)",0,1529.7983000054955,1267.3972999909893,True,False
13,2,1103.3013842999935,circle,"(-480.0, -270.0)",0,1545.4886999796145,1283.0876999651082,True,False
13,2,1103.3197557000094,circle,"(-480.0, -270.0)",0,1563.8600999955088,1301.4590999810025,True,False
13,2,1103.334044600022,circle,"(-480.0, -270.0)",0,1578.1490000081249,1315.7479999936186,True,False
13,2,1103.3548049000092,circle,"(-480.0, -270.0)",0,1598.9092999952845,1336.5082999807782,True,False
13,2,1103.3719031999935,circle,"(-480.0, -270.0)",0,1616.007599979639,1353.6065999651328,True,False
13,2,1103.4005000999896,circle,"(-480.0, -270.0)",0,1644.604499975685,1382.2034999611787,True,False
13,2,1103.421570400009,circle,"(-480.0, -270.0)",0,1665.6747999950312,1403.273799980525,True,False
13,2,1103.4388623000123,circle,"(-480.0, -270.0)",0,1682.9666999983601,1420.5656999838538,True,False
13,2,1103.4572617000085,circle,"(-480.0, -270.0)",0,1701.3660999946296,1438.9650999801233,True,False
13,2,1103.47866969998,circle,"(-480.0, -270.0)",0,1722.7740999660455,1460.3730999515392,True,False
13,2,1103.5072448999854,circle,"(-480.0, -270.0)",0,1751.34929997148,1488.9482999569736,True,False
13,2,1103.5342896999791,circle,"(-480.0, -270.0)",0,1778.394099965226,1515.9930999507196,True,False
13,2,1103.5523175999988,circle,"(-480.0, -270.0)",0,1796.4219999848865,1534.0209999703802,True,False
13,2,1103.5669778999873,circle,"(-480.0, -270.0)",0,1811.08229997335,1548.6812999588437,True,False
13,2,1103.5848182999762,circle,"(-480.0, -270.0)",0,1828.922699962277,1566.5216999477707,True,False
13,2,1103.6015062999795,circle,"(-480.0, -270.0)",0,1845.6106999656186,1583.2096999511123,True,False
13,2,1103.618971900025,circle,"(-480.0, -270.0)",0,1863.0763000110164,1600.6752999965101,True,False
13,2,1103.6345883000176,circle,"(-480.0, -270.0)",0,1878.6927000037394,1616.2916999892332,True,False
13,2,1103.6511840000167,circle,"(-480.0, -270.0)",0,1895.2884000027552,1632.887399988249,True,False
13,2,1103.6668359999894,circle,"(-480.0, -270.0)",0,1910.940399975516,1648.5393999610096,True,False
13,2,1103.6847517000278,circle,"(-480.0, -270.0)",0,1928.8561000139453,1666.455099999439,True,False
13,2,1103.6999618000118,circle,"(-480.0, -270.0)",0,1944.0661999979056,1681.6651999833994,True,False
13,2,1103.7181017000112,circle,"(-480.0, -270.0)",0,1962.2060999972746,1699.8050999827683,True,False
13,2,1103.7338089999976,circle,"(-480.0, -270.0)",0,1977.913399983663,1715.5123999691568,True,False
13,2,1103.751912000007,circle,"(-480.0, -270.0)",0,1996.0163999930955,1733.6153999785893,True,False
13,2,1103.7672088000108,circle,"(-480.0, -270.0)",0,2011.3131999969482,1748.912199982442,True,False
13,2,1103.7854128999752,circle,"(-480.0, -270.0)",0,2029.5172999612987,1767.1162999467924,True,False
13,2,1104.251024199999,cross,"(480.0, -270.0)",251.19069998618215,2495.128599985037,2232.7275999705307,False,True
13,3,1104.517722700024,cross,"(480.0, -270.0)",261.9168999954127,2761.827100010123,266.6985000250861,True,False
13,3,1104.5455380000058,cross,"(480.0, -270.0)",0,2789.6423999918625,294.5138000068255,True,False
13,3,1104.557465400023,cross,"(480.0, -270.0)",0,2801.5698000090197,306.4412000239827,True,False
13,3,1104.5833565000212,cross,"(480.0, -270.0)",0,2827.4609000072815,332.33230002224445,True,False
13,3,1104.6001967000193,cross,"(480.0, -270.0)",0,2844.3011000053957,349.1725000203587,True,False
13,3,1104.6175338000176,cross,"(480.0, -270.0)",0,2861.6382000036538,366.50960001861677,True,False
13,3,1104.6338036999805,cross,"(480.0, -270.0)",0,2877.9080999665894,382.77949998155236,True,False
13,3,1104.65116020001,cross,"(480.0, -270.0)",0,2895.2645999961533,400.13600001111627,True,False
13,3,1104.666642999975,cross,"(480.0, -270.0)",0,2910.74739996111,415.6187999760732,True,False
13,3,1104.6843240999733,cross,"(480.0, -270.0)",0,2928.4284999594092,433.29989997437224,True,False
13,3,1104.6993207000196,cross,"(480.0, -270.0)",0,2943.4251000056975,448.29650002066046,True,False
13,3,1104.7171637000283,cross,"(480.0, -270.0)",0,2961.268100014422,466.1395000293851,True,False
13,3,1104.7327997999964,cross,"(480.0, -270.0)",0,2976.9041999825276,481.77559999749064,True,False
13,3,1104.7516202999977,cross,"(480.0, -270.0)",0,2995.724699983839,500.59609999880195,True,False
13,3,1104.7746635000221,cross,"(480.0, -270.0)",0,3018.7679000082426,523.6393000232056,True,False
13,3,1104.8003202999826,cross,"(480.0, -270.0)",0,3044.4246999686584,549.2960999836214,True,False
13,3,1104.8171682999819,cross,"(480.0, -270.0)",0,3061.272699967958,566.144099982921,True,False
13,3,1104.8332745999796,cross,"(480.0, -270.0)",0,3077.378999965731,582.250399980694,True,False
13,3,1104.8509267999907,cross,"(480.0, -270.0)",0,3095.031199976802,599.9025999917649,True,False
13,3,1104.866857999994,cross,"(480.0, -270.0)",0,3110.9623999800533,615.8337999950163,True,False
13,3,1104.8845352000208,cross,"(480.0, -270.0)",0,3128.6396000068635,633.5110000218265,True,False
13,3,1104.899710699974,cross,"(480.0, -270.0)",0,3143.815099960193,648.686499975156,True,False
13,3,1104.9178371999878,cross,"(480.0, -270.0)",0,3161.941599973943,666.8129999889061,True,False
13,3,1104.9328018000233,cross,"(480.0, -270.0)",0,3176.906200009398,681.7776000243612,True,False
13,3,1104.9509259000188,cross,"(480.0, -270.0)",0,3195.0303000048734,699.9017000198364,True,False
13,3,1104.9659901999985,cross,"(480.0, -270.0)",0,3210.0945999845862,714.9659999995492,True,False
13,3,1104.984476200014,cross,"(480.0, -270.0)",0,3228.5805999999866,733.4520000149496,True,False
13,3,1105.0002570999786,cross,"(480.0, -270.0)",0,3244.361499964725,749.2328999796882,True,False
13,3,1105.0182231999934,cross,"(480.0, -270.0)",0,3262.3275999794714,767.1989999944344,True,False
13,3,1105.0333690000116,cross,"(480.0, -270.0)",0,3277.473399997689,782.3448000126518,True,False
13,3,1105.0510710999952,cross,"(480.0, -270.0)",0,3295.1754999812692,800.0468999962322,True,False
13,3,1105.0669386999798,cross,"(480.0, -270.0)",0,3311.0430999659,815.9144999808632,True,False
13,3,1105.0844494000194,cross,"(480.0, -270.0)",0,3328.5538000054657,833.4252000204287,True,False
13,3,1105.100183499977,cross,"(480.0, -270.0)",0,3344.287899963092,849.1592999780551,True,False
13,3,1105.1177258000243,cross,"(480.0, -270.0)",0,3361.830200010445,866.701600025408,True,False
13,3,1105.1332325999974,cross,"(480.0, -270.0)",0,3377.3369999835268,882.2083999984898,True,False
13,3,1105.1502514000167,cross,"(480.0, -270.0)",0,3394.3558000028133,899.2272000177763,True,False
13,3,1105.1663779999944,cross,"(480.0, -270.0)",0,3410.4823999805376,915.3537999955006,True,False
13,3,1105.1841537000146,cross,"(480.0, -270.0)",0,3428.2581000006758,933.1295000156388,True,False
13,3,1105.1996563000139,cross,"(480.0, -270.0)",0,3443.7606999999844,948.6321000149474,True,False
13,3,1105.217567500018,cross,"(480.0, -270.0)",0,3461.6719000041485,966.5433000191115,True,False
13,3,1105.2326837999863,cross,"(480.0, -270.0)",0,3476.7881999723613,981.6595999873243,True,False
13,3,1105.2511789000127,cross,"(480.0, -270.0)",0,3495.283299998846,1000.1547000138089,True,False
13,3,1105.2662295000046,cross,"(480.0, -270.0)",0,3510.3338999906555,1015.2053000056185,True,False
13,3,1105.2843430999783,cross,"(480.0, -270.0)",0,3528.447499964386,1033.3188999793492,True,False
13,3,1105.2997015999863,cross,"(480.0, -270.0)",0,3543.805999972392,1048.6773999873549,True,False
13,3,1105.3171998999896,cross,"(480.0, -270.0)",0,3561.3042999757454,1066.1756999907084,True,False
13,3,1105.3332014000043,cross,"(480.0, -270.0)",0,3577.3057999904267,1082.1772000053898,True,False
13,3,1105.35091009998,cross,"(480.0, -270.0)",0,3595.014499966055,1099.8858999810182,True,False
13,3,1105.366473299975,cross,"(480.0, -270.0)",0,3610.5776999611408,1115.4490999761038,True,False
13,3,1105.384061400022,cross,"(480.0, -270.0)",0,3628.1658000079915,1133.0372000229545,True,False
13,3,1105.3999316000263,cross,"(480.0, -270.0)",0,3644.03600001242,1148.9074000273831,True,False
13,3,1105.4172048000037,cross,"(480.0, -270.0)",0,3661.3091999897733,1166.1806000047363,True,False
13,3,1105.4359426000156,cross,"(480.0, -270.0)",0,3680.0470000016503,1184.9184000166133,True,False
13,3,1105.4515378000215,cross,"(480.0, -270.0)",0,3695.642200007569,1200.513600022532,True,False
13,3,1105.4663872999954,cross,"(480.0, -270.0)",0,3710.491699981503,1215.3630999964662,True,False
13,3,1105.4844506999943,cross,"(480.0, -270.0)",0,3728.55509998044,1233.426499995403,True,False
13,3,1105.499512200011,cross,"(480.0, -270.0)",0,3743.61659999704,1248.4880000120029,True,False
13,3,1105.5195545000024,cross,"(480.0, -270.0)",0,3763.6588999885134,1268.5303000034764,True,False
13,3,1105.534100399993,cross,"(480.0, -270.0)",0,3778.204799978994,1283.0761999939568,True,False
13,3,1105.5507858999772,cross,"(480.0, -270.0)",0,3794.890299963299,1299.7616999782622,True,False
13,3,1105.566303599975,cross,"(480.0, -270.0)",0,3810.4079999611713,1315.2793999761343,True,False
13,3,1105.5841857999912,cross,"(480.0, -270.0)",0,3828.2901999773458,1333.1615999923088,True,False
13,3,1105.5996706999722,cross,"(480.0, -270.0)",0,3843.775099958293,1348.6464999732561,True,False
13,3,1105.6174741999712,cross,"(480.0, -270.0)",0,3861.5785999572836,1366.4499999722466,True,False
13,3,1105.6331231999793,cross,"(480.0, -270.0)",0,3877.2275999654084,1382.0989999803714,True,False
13,3,1105.6503415000043,cross,"(480.0, -270.0)",0,3894.4458999903873,1399.3173000053503,True,False
13,3,1105.6665118000237,cross,"(480.0, -270.0)",0,3910.6162000098266,1415.4876000247896,True,False
13,3,1105.6836992999888,cross,"(480.0, -270.0)",0,3927.803699974902,1432.675099989865,True,False
13,3,1105.699375300028,cross,"(480.0, -270.0)",0,3943.479700013995,1448.3511000289582,True,False
13,3,1105.7172100999742,cross,"(480.0, -270.0)",0,3961.314499960281,1466.185899975244,True,False
13,3,1105.7327711000107,cross,"(480.0, -270.0)",0,3976.8754999968223,1481.7469000117853,True,False
13,3,1105.7507910000277,cross,"(480.0, -270.0)",0,3994.8954000137746,1499.7668000287376,True,False
13,3,1105.7666021999903,cross,"(480.0, -270.0)",0,4010.706599976402,1515.5779999913648,True,False
13,3,1105.7841491000145,cross,"(480.0, -270.0)",0,4028.2535000005737,1533.1249000155367,True,False
13,3,1105.7998258000007,cross,"(480.0, -270.0)",0,4043.9301999867894,1548.8016000017524,True,False
13,3,1105.8173229999957,cross,"(480.0, -270.0)",0,4061.427399981767,1566.29879999673,True,False
13,3,1105.8333000999992,cross,"(480.0, -270.0)",0,4077.4044999852777,1582.2759000002407,True,False
13,3,1105.8508042999892,cross,"(480.0, -270.0)",0,4094.908699975349,1599.780099990312,True,False
13,3,1105.8670698999777,cross,"(480.0, -270.0)",0,4111.17429996375,1616.045699978713,True,False
13,3,1105.8842227000277,cross,"(480.0, -270.0)",0,4128.327100013848,1633.1985000288114,True,False
13,3,1105.8989226000267,cross,"(480.0, -270.0)",0,4143.027000012808,1647.8984000277705,True,False
13,3,1105.9173315999797,cross,"(480.0, -270.0)",0,4161.435999965761,1666.3073999807239,True,False
13,3,1105.9345019999892,cross,"(480.0, -270.0)",0,4178.606399975251,1683.4777999902144,True,False
13,3,1105.9516683000256,cross,"(480.0, -270.0)",0,4195.77270001173,1700.6441000266932,True,False
13,3,1105.9660331999767,cross,"(480.0, -270.0)",0,4210.1375999627635,1715.0089999777265,True,False
13,3,1105.9839497000212,cross,"(480.0, -270.0)",0,4228.054100007284,1732.9255000222474,True,False
13,3,1105.999306200014,cross,"(480.0, -270.0)",0,4243.410600000061,1748.282000015024,True,False
13,3,1106.0170667999773,cross,"(480.0, -270.0)",0,4261.171199963428,1766.042599978391,True,False
13,3,1106.284083799983,star,"(-480.0, 270.0)",265.23189997533336,4528.188199969009,2033.0595999839716,False,True
13,4,1110.649488200026,t,"(480.0, 270.0)",250.91230001999065,8893.592600012198,4365.4044000431895,False,True
14,1,1114.7642711999943,circle,"(-480.0, -270.0)",263.28600000124425,263.32389999879524,263.32389999879524,False,True
14,2,1115.1699912999757,cross,"(480.0, -270.0)",254.68289997661486,669.0439999802038,405.72009998140857,True,False
14,2,1115.1854782999726,cross,"(480.0, -270.0)",0,684.5309999771416,421.2070999783464,True,False
14,2,1115.1982974000275,cross,"(480.0, -270.0)",0,697.3501000320539,434.02620003325865,True,False
14,2,1115.2153962000157,cross,"(480.0, -270.0)",0,714.4489000202157,451.1250000214204,True,False
14,2,1115.230094700004,cross,"(480.0, -270.0)",0,729.1474000085145,465.8235000097193,True,False
14,2,1115.2485624999972,cross,"(480.0, -270.0)",0,747.6152000017464,484.2913000029512,True,False
14,2,1115.2642587000155,cross,"(480.0, -270.0)",0,763.3114000200294,499.98750002123415,True,False
14,2,1115.281819100026,cross,"(480.0, -270.0)",0,780.8718000305817,517.5479000317864,True,False
14,2,1115.297655900009,cross,"(480.0, -270.0)",0,796.7086000135168,533.3847000147216,True,False
14,2,1115.315095799975,cross,"(480.0, -270.0)",0,814.1484999796376,550.8245999808423,True,False
14,2,1115.3316727000056,cross,"(480.0, -270.0)",0,830.7254000101238,567.4015000113286,True,False
14,2,1115.3481318000122,cross,"(480.0, -270.0)",0,847.1845000167377,583.8606000179425,True,False
14,2,1115.3638079999946,cross,"(480.0, -270.0)",0,862.8606999991462,599.5368000003509,True,False
14,2,1115.382235899975,cross,"(480.0, -270.0)",0,881.2885999795981,617.9646999808028,True,False
14,2,1115.3980016999994,cross,"(480.0, -270.0)",0,897.0544000039808,633.7305000051856,True,False
14,2,1115.4149620999815,cross,"(480.0, -270.0)",0,914.0147999860346,650.6908999872394,True,False
14,2,1115.4314566000248,cross,"(480.0, -270.0)",0,930.5093000293709,667.1854000305757,True,False
14,2,1115.4489532000152,cross,"(480.0, -270.0)",0,948.0059000197798,684.6820000209846,True,False
14,2,1115.4635459000128,cross,"(480.0, -270.0)",0,962.5986000173725,699.2747000185773,True,False
14,2,1115.4817287999904,cross,"(480.0, -270.0)",0,980.7814999949187,717.4575999961235,True,False
14,2,1115.4966494999826,cross,"(480.0, -270.0)",0,995.7021999871358,732.3782999883406,True,False
14,2,1115.5151205000002,cross,"(480.0, -270.0)",0,1014.1732000047341,750.8493000059389,True,False
14,2,1115.5306875000242,cross,"(480.0, -270.0)",0,1029.7402000287548,766.4163000299595,True,False
14,2,1115.548110899981,cross,"(480.0, -270.0)",0,1047.1635999856517,783.8396999868564,True,False
14,2,1115.5505454000086,circle,"(-480.0, -270.0)",266.87190000666305,1049.5981000130996,786.2742000143044,True,False
14,2,1115.5669588000164,circle,"(-480.0, -270.0)",0,1066.011500020977,802.6876000221819,True,False
14,2,1115.581815499987,circle,"(-480.0, -270.0)",0,1080.868199991528,817.5442999927327,True,False
14,2,1115.5977234999882,circle,"(-480.0, -270.0)",0,1096.7761999927461,833.4522999939509,True,False
14,2,1115.6153031000285,circle,"(-480.0, -270.0)",0,1114.3558000330813,851.0319000342861,True,False
14,2,1115.6311127999797,circle,"(-480.0, -270.0)",0,1130.1654999842867,866.8415999854915,True,False
14,2,1115.6485325000249,circle,"(-480.0, -270.0)",0,1147.5852000294253,884.2613000306301,True,False
14,2,1115.6644410999725,circle,"(-480.0, -270.0)",0,1163.4937999770045,900.1698999782093,True,False
14,2,1115.6815489999717,circle,"(-480.0, -270.0)",0,1180.6016999762505,917.2777999774553,True,False
14,2,1115.6969828999718,circle,"(-480.0, -270.0)",0,1196.0355999763124,932.7116999775171,True,False
14,2,1115.7145818999852,circle,"(-480.0, -270.0)",0,1213.6345999897458,950.3106999909505,True,False
14,2,1115.7305511999875,circle,"(-480.0, -270.0)",0,1229.603899992071,966.2799999932759,True,False
14,2,1115.748194499989,circle,"(-480.0, -270.0)",0,1247.2471999935806,983.9232999947853,True,False
14,2,1115.7644353000214,circle,"(-480.0, -270.0)",0,1263.4880000259727,1000.1641000271775,True,False
14,2,1115.7816299999831,circle,"(-480.0, -270.0)",0,1280.6826999876648,1017.3587999888696,True,False
14,2,1115.7973047000123,circle,"(-480.0, -270.0)",0,1296.3574000168592,1033.033500018064,True,False
14,2,1115.8148693999974,circle,"(-480.0, -270.0)",0,1313.922100001946,1050.5982000031509,True,False
14,2,1115.830592399987,circle,"(-480.0, -270.0)",0,1329.6450999914669,1066.3211999926716,True,False
14,2,1115.8482916000066,circle,"(-480.0, -270.0)",0,1347.344300011173,1084.0204000123776,True,False
14,2,1115.8644490999868,circle,"(-480.0, -270.0)",0,1363.5017999913543,1100.177899992559,True,False
14,2,1115.8819160999847,circle,"(-480.0, -270.0)",0,1380.9687999892049,1117.6448999904096,True,False
14,2,1115.897003400023,circle,"(-480.0, -270.0)",0,1396.0561000276357,1132.7322000288405,True,False
14,2,1115.9150320999906,circle,"(-480.0, -270.0)",0,1414.0847999951802,1150.760899996385,True,False
14,2,1115.930645400018,circle,"(-480.0, -270.0)",0,1429.698100022506,1166.3742000237107,True,False
14,2,1115.9482704999973,circle,"(-480.0, -270.0)",0,1447.323200001847,1183.9993000030518,True,False
14,2,1115.963859600015,circle,"(-480.0, -270.0)",0,1462.912300019525,1199.5884000207298,True,False
14,2,1115.9813393999939,circle,"(-480.0, -270.0)",0,1480.3920999984257,1217.0681999996305,True,False
14,2,1115.9967485999805,circle,"(-480.0, -270.0)",0,1495.8012999850325,1232.4773999862373,True,False
14,2,1116.0151637999807,circle,"(-480.0, -270.0)",0,1514.2164999851957,1250.8925999864005,True,False
14,2,1116.030746400007,circle,"(-480.0, -270.0)",0,1529.7991000115871,1266.475200012792,True,False
14,2,1116.048603000003,circle,"(-480.0, -270.0)",0,1547.6557000074536,1284.3318000086583,True,False
14,2,1116.0643473999808,circle,"(-480.0, -270.0)",0,1563.4000999853015,1300.0761999865063,True,False
14,2,1116.083146799996,circle,"(-480.0, -270.0)",0,1582.19950000057,1318.8756000017747,True,False
14,2,1116.0989113000105,circle,"(-480.0, -270.0)",0,1597.964000015054,1334.6401000162587,True,False
14,2,1116.1153209999902,circle,"(-480.0, -270.0)",0,1614.3736999947578,1351.0497999959625,True,False
14,2,1116.1308945000055,circle,"(-480.0, -270.0)",0,1629.947200010065,1366.6233000112697,True,False
14,2,1116.1478384999791,circle,"(-480.0, -270.0)",0,1646.8911999836564,1383.5672999848612,True,False
14,2,1116.1636623999802,circle,"(-480.0, -270.0)",0,1662.71509998478,1399.3911999859847,True,False
14,2,1116.181729200005,circle,"(-480.0, -270.0)",0,1680.781900009606,1417.4580000108108,True,False
14,2,1116.1972582999733,circle,"(-480.0, -270.0)",0,1696.310999977868,1432.9870999790728,True,False
14,2,1116.2147434999933,circle,"(-480.0, -270.0)",0,1713.796199997887,1450.4722999990918,True,False
14,2,1116.2302611999912,circle,"(-480.0, -270.0)",0,1729.3138999957591,1465.989999996964,True,False
14,2,1116.2481446000165,circle,"(-480.0, -270.0)",0,1747.197300021071,1483.8734000222757,True,False
14,2,1116.2636842000065,circle,"(-480.0, -270.0)",0,1762.7369000110775,1499.4130000122823,True,False
14,2,1116.281728699978,circle,"(-480.0, -270.0)",0,1780.7813999825157,1517.4574999837205,True,False
14,2,1116.2972582000075,circle,"(-480.0, -270.0)",0,1796.3109000120312,1532.987000013236,True,False
14,2,1116.3151076000067,circle,"(-480.0, -270.0)",0,1814.160300011281,1550.8364000124857,True,False
14,2,1116.3340990999714,circle,"(-480.0, -270.0)",0,1833.1517999758944,1569.8278999770992,True,False
14,2,1116.3491748999804,circle,"(-480.0, -270.0)",0,1848.2275999849662,1584.903699986171,True,False
14,2,1116.3638660999713,circle,"(-480.0, -270.0)",0,1862.918799975887,1599.5948999770917,True,False
14,2,1116.381629200012,circle,"(-480.0, -270.0)",0,1880.6819000164978,1617.3580000177026,True,False
14,2,1116.3977459999733,circle,"(-480.0, -270.0)",0,1896.7986999778077,1633.4747999790125,True,False
14,2,1116.4149970000144,circle,"(-480.0, -270.0)",0,1914.0497000189498,1650.7258000201546,True,False
14,2,1116.4310030000051,circle,"(-480.0, -270.0)",0,1930.0557000096887,1666.7318000108935,True,False
14,2,1116.4482688999851,circle,"(-480.0, -270.0)",0,1947.3215999896638,1683.9976999908686,True,False
14,2,1116.4637087999727,circle,"(-480.0, -270.0)",0,1962.761499977205,1699.4375999784097,True,False
14,2,1116.4814469999983,circle,"(-480.0, -270.0)",0,1980.499700002838,1717.1758000040427,True,False
14,2,1116.4966309000156,circle,"(-480.0, -270.0)",0,1995.6836000201292,1732.359700021334,True,False
14,2,1116.5144731000182,circle,"(-480.0, -270.0)",0,2013.5258000227623,1750.201900023967,True,False
14,2,1116.5306997000007,circle,"(-480.0, -270.0)",0,2029.7524000052363,1766.428500006441,True,False
14,2,1116.5482604000135,circle,"(-480.0, -270.0)",0,2047.3131000180729,1783.9892000192776,True,False
14,2,1117.380906299979,cross,"(480.0, -270.0)",250.49239996587858,2879.9589999835007,2616.6350999847054,False,True
14,3,1117.6537902000127,cross,"(480.0, -270.0)",268.88079999480397,3152.8429000172764,272.8839000337757,True,False
14,3,1117.6689513999736,cross,"(480.0, -270.0)",0,3168.004099978134,288.04509999463335,True,False
14,3,1117.6823675999767,cross,"(480.0, -270.0)",0,3181.420299981255,301.4612999977544,True,False
14,3,1117.6972232999979,cross,"(480.0, -270.0)",0,3196.276000002399,316.3170000188984,True,False
14,3,1117.7144300999935,cross,"(480.0, -270.0)",0,3213.482799998019,333.5238000145182,True,False
14,3,1117.7298896000138,cross,"(480.0, -270.0)",0,3228.942300018389,348.9833000348881,True,False
14,3,1117.7472243999946,cross,"(480.0, -270.0)",0,3246.2770999991335,366.3181000156328,True,False
14,3,1117.7632711000042,cross,"(480.0, -270.0)",0,3262.323800008744,382.3648000252433,True,False
14,3,1117.7816333000083,cross,"(480.0, -270.0)",0,3280.6860000127926,400.72700002929196,True,False
14,3,1117.7971818000078,cross,"(480.0, -270.0)",0,3296.2345000123605,416.2755000288598,True,False
14,3,1117.8146942000021,cross,"(480.0, -270.0)",0,3313.746900006663,433.78790002316236,True,False
14,3,1117.8299606000073,cross,"(480.0, -270.0)",0,3329.013300011866,449.0543000283651,True,False
14,3,1117.8476955000078,cross,"(480.0, -270.0)",0,3346.748200012371,466.78920002887025,True,False
14,3,1117.863074599998,cross,"(480.0, -270.0)",0,3362.127300002612,482.1683000191115,True,False
14,3,1117.8812762000016,cross,"(480.0, -270.0)",0,3380.328900006134,500.3699000226334,True,False
14,3,1117.9009651999804,cross,"(480.0, -270.0)",0,3400.0178999849595,520.0589000014588,True,False
14,3,1117.9150803000084,cross,"(480.0, -270.0)",0,3414.133000012953,534.1740000294521,True,False
14,3,1117.9299144999823,cross,"(480.0, -270.0)",0,3428.9671999868006,549.0082000032999,True,False
14,3,1117.9477428999962,cross,"(480.0, -270.0)",0,3446.795600000769,566.8366000172682,True,False
14,3,1117.96316330001,cross,"(480.0, -270.0)",0,3462.2160000144504,582.2570000309497,True,False
14,3,1117.9808350999956,cross,"(480.0, -270.0)",0,3479.8878000001423,599.9288000166416,True,False
14,3,1117.996290799987,cross,"(480.0, -270.0)",0,3495.343499991577,615.3845000080764,True,False
14,3,1118.0138942999765,cross,"(480.0, -270.0)",0,3512.946999981068,632.9879999975674,True,False
14,3,1118.0299609000213,cross,"(480.0, -270.0)",0,3529.0136000257917,649.054600042291,True,False
14,3,1118.048314100015,cross,"(480.0, -270.0)",0,3547.3668000195175,667.4078000360169,True,False
14,3,1118.062786400027,cross,"(480.0, -270.0)",0,3561.839100031648,681.8801000481471,True,False
14,3,1118.080460200028,cross,"(480.0, -270.0)",0,3579.5129000325687,699.553900049068,True,False
14,3,1118.096730899997,cross,"(480.0, -270.0)",0,3595.783600001596,715.8246000180952,True,False
14,3,1118.114630200027,cross,"(480.0, -270.0)",0,3613.682900031563,733.7239000480622,True,False
14,3,1118.1314107999788,cross,"(480.0, -270.0)",0,3630.463499983307,750.5044999998063,True,False
14,3,1118.1481854000012,cross,"(480.0, -270.0)",0,3647.2381000057794,767.2791000222787,True,False
14,3,1118.163239400019,cross,"(480.0, -270.0)",0,3662.2921000234783,782.3331000399776,True,False
14,3,1118.1843457000214,cross,"(480.0, -270.0)",0,3683.398400025908,803.4394000424072,True,False
14,3,1118.197433400026,cross,"(480.0, -270.0)",0,3696.4861000305973,816.5271000470966,True,False
14,3,1118.2145486000227,cross,"(480.0, -270.0)",0,3713.6013000272214,833.6423000437208,True,False
14,3,1118.2299126000144,cross,"(480.0, -270.0)",0,3728.965300018899,849.0063000353985,True,False
14,3,1118.247808300017,cross,"(480.0, -270.0)",0,3746.861000021454,866.9020000379533,True,False
14,3,1118.2628205000074,cross,"(480.0, -270.0)",0,3761.8732000119053,881.9142000284046,True,False
14,3,1118.2807180000236,cross,"(480.0, -270.0)",0,3779.770700028166,899.8117000446655,True,False
14,3,1118.2965498000267,cross,"(480.0, -270.0)",0,3795.6025000312366,915.6435000477359,True,False
14,3,1118.3141004000208,cross,"(480.0, -270.0)",0,3813.1531000253744,933.1941000418738,True,False
14,3,1118.329750999983,cross,"(480.0, -270.0)",0,3828.803699987475,948.8447000039741,True,False
14,3,1118.3484595000045,cross,"(480.0, -270.0)",0,3847.512200009078,967.5532000255771,True,False
14,3,1118.3638390999986,cross,"(480.0, -270.0)",0,3862.8918000031263,982.9328000196256,True,False
14,3,1118.3809489000123,cross,"(480.0, -270.0)",0,3880.00160001684,1000.0426000333391,True,False
14,3,1118.3974790999782,cross,"(480.0, -270.0)",0,3896.5317999827676,1016.5727999992669,True,False
14,3,1118.4143327000202,cross,"(480.0, -270.0)",0,3913.3854000247084,1033.4264000412077,True,False
14,3,1118.429868599982,cross,"(480.0, -270.0)",0,3928.9212999865413,1048.9623000030406,True,False
14,3,1118.4475477000233,cross,"(480.0, -270.0)",0,3946.600400027819,1066.6414000443183,True,False
14,3,1118.4630922999931,cross,"(480.0, -270.0)",0,3962.1449999976903,1082.1860000141896,True,False
14,3,1118.480770700029,cross,"(480.0, -270.0)",0,3979.823400033638,1099.8644000501372,True,False
14,3,1118.497041900002,cross,"(480.0, -270.0)",0,3996.0946000064723,1116.1356000229716,True,False
14,3,1118.5140944999876,cross,"(480.0, -270.0)",0,4013.1471999920905,1133.1882000085898,True,False
14,3,1118.515907299996,star,"(-480.0, 270.0)",250.34420000156388,4014.9600000004284,1135.0010000169277,True,False
14,3,1118.5324723999947,star,"(-480.0, 270.0)",0,4031.5250999992713,1151.5661000157706,True,False
14,3,1118.5466582999798,star,"(-480.0, 270.0)",0,4045.710999984294,1165.7520000007935,True,False
14,3,1118.563058700005,star,"(-480.0, 270.0)",0,4062.1114000095986,1182.152400026098,True,False
14,3,1118.5818849999923,star,"(-480.0, 270.0)",0,4080.9376999968663,1200.9787000133656,True,False
14,3,1118.597022700007,star,"(-480.0, 270.0)",0,4096.075400011614,1216.1164000281133,True,False
14,3,1118.6143614000175,star,"(-480.0, 270.0)",0,4113.414100022055,1233.4551000385545,True,False
14,3,1118.6304893000051,star,"(-480.0, 270.0)",0,4129.542000009678,1249.5830000261776,True,False
14,3,1118.6476405999856,star,"(-480.0, 270.0)",0,4146.693299990147,1266.7343000066467,True,False
14,3,1118.6634105999838,star,"(-480.0, 270.0)",0,4162.463299988303,1282.5043000048026,True,False
14,3,1118.6864668999915,star,"(-480.0, 270.0)",0,4185.5195999960415,1305.5606000125408,True,False
14,3,1118.7134143000003,star,"(-480.0, 270.0)",0,4212.467000004835,1332.5080000213347,True,False
14,3,1118.7302445999812,star,"(-480.0, 270.0)",0,4229.297299985774,1349.3383000022732,True,False
14,3,1118.7473966000252,star,"(-480.0, 270.0)",0,4246.449300029781,1366.49030004628,True,False
14,3,1118.7630024999962,star,"(-480.0, 270.0)",0,4262.055200000759,1382.0962000172585,True,False
14,3,1118.780243300018,star,"(-480.0, 270.0)",0,4279.296000022441,1399.3370000389405,True,False
14,3,1118.795877000026,star,"(-480.0, 270.0)",0,4294.92970003048,1414.970700046979,True,False
14,3,1118.8139525000006,star,"(-480.0, 270.0)",0,4313.005200005136,1433.0462000216357,True,False
14,3,1118.8301431,star,"(-480.0, 270.0)",0,4329.195800004527,1449.2368000210263,True,False
14,3,1118.8477221999783,star,"(-480.0, 270.0)",0,4346.774899982847,1466.8158999993466,True,False
14,3,1118.8631179999793,star,"(-480.0, 270.0)",0,4362.170699983835,1482.2117000003345,True,False
14,3,1118.88063650002,star,"(-480.0, 270.0)",0,4379.689200024586,1499.7302000410855,True,False
14,3,1118.8966847999836,star,"(-480.0, 270.0)",0,4395.737499988172,1515.7785000046715,True,False
14,3,1118.9134518000064,star,"(-480.0, 270.0)",0,4412.504500010982,1532.5455000274815,True,False
14,3,1118.9299343000166,star,"(-480.0, 270.0)",0,4428.987000021152,1549.0280000376515,True,False
14,3,1118.9473755999934,star,"(-480.0, 270.0)",0,4446.428299997933,1566.4693000144325,True,False
14,3,1118.9633269999758,star,"(-480.0, 270.0)",0,4462.379699980374,1582.4206999968737,True,False
14,3,1118.9807146000094,star,"(-480.0, 270.0)",0,4479.767300013918,1599.8083000304177,True,False
14,3,1118.9963238000055,star,"(-480.0, 270.0)",0,4495.376500010025,1615.417500026524,True,False
14,3,1119.013897500001,star,"(-480.0, 270.0)",0,4512.950200005434,1632.9912000219338,True,False
14,3,1119.030023899977,star,"(-480.0, 270.0)",0,4529.076599981636,1649.1175999981351,True,False
14,3,1119.047784800001,star,"(-480.0, 270.0)",0,4546.837500005495,1666.8785000219941,True,False
14,3,1119.0628520000027,star,"(-480.0, 270.0)",0,4561.90470000729,1681.945700023789,True,False
14,3,1119.0806596999755,star,"(-480.0, 270.0)",0,4579.712399980053,1699.7533999965526,True,False
14,3,1119.096339199983,star,"(-480.0, 270.0)",0,4595.39189998759,1715.4329000040889,True,False
14,3,1119.1135153999785,star,"(-480.0, 270.0)",0,4612.5680999830365,1732.6090999995358,True,False
14,3,1119.1303792999825,star,"(-480.0, 270.0)",0,4629.431999986991,1749.4730000034906,True,False
14,3,1119.1475030999864,star,"(-480.0, 270.0)",0,4646.555799990892,1766.5968000073917,True,False
14,3,1119.1629971999791,star,"(-480.0, 270.0)",0,4662.0498999836855,1782.0909000001848,True,False
14,3,1119.1716147999978,star,"(-480.0, 270.0)",636.6787999868393,4670.66750000231,1790.708500018809,False,True
14,4,1120.996214599989,t,"(480.0, 270.0)",266.475000011269,6495.267299993429,1824.5997999911197,False,True
15,1,1125.245243799989,circle,"(-480.0, -270.0)",250.06509997183457,381.18039997061715,381.18039997061715,False,True
15,2,1125.5149038999807,circle,"(-480.0, -270.0)",265.9677999909036,650.8404999622144,269.66009999159724,True,False
15,2,1125.5310232000193,circle,"(-480.0, -270.0)",0,666.9598000007682,285.779400030151,True,False
15,2,1125.5449729000102,circle,"(-480.0, -270.0)",0,680.9094999916852,299.729100021068,True,False
15,2,1125.5613385000033,circle,"(-480.0, -270.0)",0,697.2750999848358,316.0947000142187,True,False
15,2,1125.578679499973,circle,"(-480.0, -270.0)",0,714.6160999545828,333.4356999839656,True,False
15,2,1125.594961600029,circle,"(-480.0, -270.0)",0,730.8982000104152,349.717800039798,True,False
15,2,1125.6174502000213,circle,"(-480.0, -270.0)",0,753.3868000027724,372.2064000321552,True,False
15,2,1125.6312417999725,circle,"(-480.0, -270.0)",0,767.1783999539912,385.99799998337403,True,False
15,2,1125.6458507999778,circle,"(-480.0, -270.0)",0,781.7873999592848,400.60699998866767,True,False
15,2,1125.661226600001,circle,"(-480.0, -270.0)",0,797.1631999826059,415.98280001198873,True,False
15,2,1125.678316799982,circle,"(-480.0, -270.0)",0,814.2533999634907,433.0729999928735,True,False
15,2,1125.6946295999805,circle,"(-480.0, -270.0)",0,830.5661999620497,449.3857999914326,True,False
15,2,1125.7116792000015,circle,"(-480.0, -270.0)",0,847.615799983032,466.4354000124149,True,False
15,2,1125.728022700001,circle,"(-480.0, -270.0)",0,863.9592999825254,482.77890001190826,True,False
15,2,1125.7450288999826,circle,"(-480.0, -270.0)",0,880.965499964077,499.7850999934599,True,False
15,2,1125.7613463000162,circle,"(-480.0, -270.0)",0,897.2828999976628,516.1025000270456,True,False
15,2,1125.7784026999725,circle,"(-480.0, -270.0)",0,914.3392999540083,533.1588999833912,True,False
15,2,1125.7939568000147,circle,"(-480.0, -270.0)",0,929.8933999962173,548.7130000256002,True,False
15,2,1125.8116993000149,circle,"(-480.0, -270.0)",0,947.635899996385,566.4555000257678,True,False
15,2,1125.8281871000072,circle,"(-480.0, -270.0)",0,964.1236999887042,582.943300018087,True,False
15,2,1125.8445749999955,circle,"(-480.0, -270.0)",0,980.5115999770351,599.3312000064179,True,False
15,2,1125.8613891000277,circle,"(-480.0, -270.0)",0,997.3257000092417,616.1453000386246,True,False
15,2,1125.8789082000148,circle,"(-480.0, -270.0)",0,1014.8447999963537,633.6644000257365,True,False
15,2,1125.8951101999846,circle,"(-480.0, -270.0)",0,1031.0467999661341,649.866399995517,True,False
15,2,1125.9116493000183,circle,"(-480.0, -270.0)",0,1047.5858999998309,666.4055000292137,True,False
15,2,1125.9277604999952,circle,"(-480.0, -270.0)",0,1063.6970999767072,682.5167000060901,True,False
15,2,1125.9445650000125,circle,"(-480.0, -270.0)",0,1080.5015999940224,699.3212000234053,True,False
15,2,1125.960968200001,circle,"(-480.0, -270.0)",0,1096.9047999824397,715.7244000118226,True,False
15,2,1125.9778735999716,circle,"(-480.0, -270.0)",0,1113.81019995315,732.6297999825329,True,False
15,2,1125.9941908000037,circle,"(-480.0, -270.0)",0,1130.1273999852128,748.9470000145957,True,False
15,2,1126.011492700025,circle,"(-480.0, -270.0)",0,1147.429300006479,766.2489000358619,True,False
15,2,1126.0274207000039,circle,"(-480.0, -270.0)",0,1163.357299985364,782.1769000147469,True,False
15,2,1126.0451179000083,circle,"(-480.0, -270.0)",0,1181.0544999898411,799.874100019224,True,False
15,2,1126.0604543000227,circle,"(-480.0, -270.0)",0,1196.3909000041895,815.2105000335723,True,False
15,2,1126.0781716000056,circle,"(-480.0, -270.0)",0,1214.1081999870948,832.9278000164777,True,False
15,2,1126.0933051999891,circle,"(-480.0, -270.0)",0,1229.241799970623,848.061400000006,True,False
15,2,1126.1114009000012,circle,"(-480.0, -270.0)",0,1247.3374999826774,866.1571000120603,True,False
15,2,1126.1276157000102,circle,"(-480.0, -270.0)",0,1263.5522999917157,882.3719000210986,True,False
15,2,1126.1444427000242,circle,"(-480.0, -270.0)",0,1280.379300005734,899.1989000351168,True,False
15,2,1126.1608101999736,circle,"(-480.0, -270.0)",0,1296.7467999551445,915.5663999845274,True,False
15,2,1126.1788131999783,circle,"(-480.0, -270.0)",0,1314.7497999598272,933.5693999892101,True,False
15,2,1126.1945559000014,circle,"(-480.0, -270.0)",0,1330.4924999829382,949.312100012321,True,False
15,2,1126.2118255000096,circle,"(-480.0, -270.0)",0,1347.7620999910869,966.5817000204697,True,False
15,2,1126.226687300019,circle,"(-480.0, -270.0)",0,1362.6239000004716,981.4435000298545,True,False
15,2,1126.2448365999735,circle,"(-480.0, -270.0)",0,1380.7731999550015,999.5927999843843,True,False
15,2,1126.261079900025,circle,"(-480.0, -270.0)",0,1397.0165000064299,1015.8361000358127,True,False
15,2,1126.2784480000264,circle,"(-480.0, -270.0)",0,1414.3846000079066,1033.2042000372894,True,False
15,2,1126.2936775999842,circle,"(-480.0, -270.0)",0,1429.6141999657266,1048.4337999951094,True,False
15,2,1126.3118610000238,circle,"(-480.0, -270.0)",0,1447.7976000052877,1066.6172000346705,True,False
15,2,1126.3263866999769,circle,"(-480.0, -270.0)",0,1462.3232999583706,1081.1428999877535,True,False
15,2,1126.34518080001,circle,"(-480.0, -270.0)",0,1481.11739999149,1099.9370000208728,True,False
15,2,1126.3611897000228,circle,"(-480.0, -270.0)",0,1497.126300004311,1115.9459000336938,True,False
15,2,1126.3827260999824,circle,"(-480.0, -270.0)",0,1518.6626999638975,1137.4822999932803,True,False
15,2,1126.3954384999815,circle,"(-480.0, -270.0)",0,1531.3750999630429,1150.1946999924257,True,False
15,2,1126.4115157999913,circle,"(-480.0, -270.0)",0,1547.4523999728262,1166.272000002209,True,False
15,2,1126.4279766000109,circle,"(-480.0, -270.0)",0,1563.9131999923848,1182.7328000217676,True,False
15,2,1126.4442615999724,circle,"(-480.0, -270.0)",0,1580.198199953884,1199.0177999832667,True,False
15,2,1126.4602600000217,circle,"(-480.0, -270.0)",0,1596.196600003168,1215.0162000325508,True,False
15,2,1126.4781687000068,circle,"(-480.0, -270.0)",0,1614.1052999882959,1232.9249000176787,True,False
15,2,1126.493728499976,circle,"(-480.0, -270.0)",0,1629.6650999574922,1248.484699986875,True,False
15,2,1126.5111782000167,circle,"(-480.0, -270.0)",0,1647.114799998235,1265.9344000276178,True,False
15,2,1126.5271794000291,circle,"(-480.0, -270.0)",0,1663.116000010632,1281.9356000400148,True,False
15,2,1126.543418699992,circle,"(-480.0, -270.0)",0,1679.3552999733947,1298.1749000027776,True,False
15,2,1126.5608094999916,circle,"(-480.0, -270.0)",0,1696.7460999730974,1315.5657000024803,True,False
15,2,1126.578665899986,circle,"(-480.0, -270.0)",0,1714.602499967441,1333.4220999968238,True,False
15,2,1126.594409500016,circle,"(-480.0, -270.0)",0,1730.346099997405,1349.1657000267878,True,False
15,2,1126.611756599974,circle,"(-480.0, -270.0)",0,1747.6931999553926,1366.5127999847755,True,False
15,2,1126.6272620999953,circle,"(-480.0, -270.0)",0,1763.1986999767832,1382.018300006166,True,False
15,2,1126.645061600022,circle,"(-480.0, -270.0)",0,1780.9982000035234,1399.8178000329062,True,False
15,2,1126.6601147999754,circle,"(-480.0, -270.0)",0,1796.051399956923,1414.8709999863058,True,False
15,2,1126.677268999978,circle,"(-480.0, -270.0)",0,1813.205599959474,1432.025199988857,True,False
15,2,1126.693560099986,circle,"(-480.0, -270.0)",0,1829.4966999674216,1448.3162999968044,True,False
15,2,1126.7114062000182,circle,"(-480.0, -270.0)",0,1847.3427999997512,1466.162400029134,True,False
15,2,1126.726417400001,circle,"(-480.0, -270.0)",0,1862.353999982588,1481.1736000119708,True,False
15,2,1126.7445315999794,circle,"(-480.0, -270.0)",0,1880.4681999608874,1499.2877999902703,True,False
15,2,1126.764022200019,circle,"(-480.0, -270.0)",0,1899.9588000006042,1518.778400029987,True,False
15,2,1126.7780061999802,circle,"(-480.0, -270.0)",0,1913.94279996166,1532.762399991043,True,False
15,2,1126.793707099976,circle,"(-480.0, -270.0)",0,1929.6436999575235,1548.4632999869063,True,False
15,2,1126.8114412000286,circle,"(-480.0, -270.0)",0,1947.3778000101447,1566.1974000395276,True,False
15,2,1126.8275922000175,circle,"(-480.0, -270.0)",0,1963.5287999990396,1582.3484000284225,True,False
15,2,1126.8443153999979,circle,"(-480.0, -270.0)",0,1980.251999979373,1599.071600008756,True,False
15,2,1126.8605847000144,circle,"(-480.0, -270.0)",0,1996.5212999959476,1615.3409000253305,True,False
15,2,1126.8780453000218,circle,"(-480.0, -270.0)",0,2013.981900003273,1632.801500032656,True,False
15,2,1126.8941189000034,circle,"(-480.0, -270.0)",0,2030.0554999848828,1648.8751000142656,True,False
15,2,1126.9111918000272,circle,"(-480.0, -270.0)",0,2047.1284000086598,1665.9480000380427,True,False
15,2,1126.926529599994,circle,"(-480.0, -270.0)",0,2062.4661999754608,1681.2858000048436,True,False
15,2,1126.9446567000123,circle,"(-480.0, -270.0)",0,2080.5932999937795,1699.4129000231624,True,False
15,2,1126.9611718999804,circle,"(-480.0, -270.0)",0,2097.108499961905,1715.928099991288,True,False
15,2,1126.977400099975,circle,"(-480.0, -270.0)",0,2113.3366999565624,1732.1562999859452,True,False
15,2,1126.9933074000292,circle,"(-480.0, -270.0)",0,2129.244000010658,1748.063600040041,True,False
15,2,1127.0111382000032,circle,"(-480.0, -270.0)",0,2147.0747999846935,1765.8944000140764,True,False
15,2,1127.027038100001,circle,"(-480.0, -270.0)",0,2162.974699982442,1781.7943000118248,True,False
15,2,1127.7787751000142,cross,"(480.0, -270.0)",252.0743000204675,2914.711699995678,2533.531300025061,False,True
15,3,1128.0447907000198,cross,"(480.0, -270.0)",262.65290001174435,3180.7273000013083,266.0156000056304,True,False
15,3,1128.0626515999902,cross,"(480.0, -270.0)",0,3198.5881999717094,283.8764999760315,True,False
15,3,1128.0775704000262,cross,"(480.0, -270.0)",0,3213.5070000076666,298.79530001198873,True,False
15,3,1128.093664199987,cross,"(480.0, -270.0)",0,3229.600799968466,314.88909997278824,True,False
15,3,1128.1115942000179,cross,"(480.0, -270.0)",0,3247.5307999993674,332.8191000036895,True,False
15,3,1128.1264581999858,cross,"(480.0, -270.0)",0,3262.3947999672964,347.6830999716185,True,False
15,3,1128.144827399985,cross,"(480.0, -270.0)",0,3280.763999966439,366.05229997076094,True,False
15,3,1128.1598670000094,cross,"(480.0, -270.0)",0,3295.8035999909043,381.0918999952264,True,False
15,3,1128.1776228999952,cross,"(480.0, -270.0)",0,3313.559499976691,398.84779998101294,True,False
15,3,1128.1929802999948,cross,"(480.0, -270.0)",0,3328.9168999763206,414.20519998064265,True,False
15,3,1128.2108434999827,cross,"(480.0, -270.0)",0,3346.780099964235,432.06839996855706,True,False
15,3,1128.2267272999743,cross,"(480.0, -270.0)",0,3362.6638999558054,447.9521999601275,True,False
15,3,1128.2445186999976,cross,"(480.0, -270.0)",0,3380.455299979076,465.74359998339787,True,False
15,3,1128.2597921999986,cross,"(480.0, -270.0)",0,3395.7287999801338,481.01709998445585,True,False
15,3,1128.2770887999795,cross,"(480.0, -270.0)",0,3413.025399961043,498.31369996536523,True,False
15,3,1128.2932928000228,cross,"(480.0, -270.0)",0,3429.2294000042602,514.5177000085823,True,False
15,3,1128.3109378999798,cross,"(480.0, -270.0)",0,3446.874499961268,532.1627999655902,True,False
15,3,1128.326392900024,cross,"(480.0, -270.0)",0,3462.3295000055805,547.6178000099026,True,False
15,3,1128.3440157999867,cross,"(480.0, -270.0)",0,3479.9523999681696,565.2406999724917,True,False
15,3,1128.35999919998,cross,"(480.0, -270.0)",0,3495.935799961444,581.2240999657661,True,False
15,3,1128.3775626000133,cross,"(480.0, -270.0)",0,3513.4991999948397,598.7874999991618,True,False
15,3,1128.3935402000207,cross,"(480.0, -270.0)",0,3529.4768000021577,614.7651000064798,True,False
15,3,1128.4107545000152,cross,"(480.0, -270.0)",0,3546.6910999966785,631.9794000010006,True,False
15,3,1128.4265225999989,cross,"(480.0, -270.0)",0,3562.459199980367,647.7474999846891,True,False
15,3,1128.4450137999956,cross,"(480.0, -270.0)",0,3580.950399977155,666.2386999814771,True,False
15,3,1128.4607019000105,cross,"(480.0, -270.0)",0,3596.6384999919683,681.9267999962904,True,False
15,3,1128.477729599981,cross,"(480.0, -270.0)",0,3613.6661999626085,698.9544999669306,True,False
15,3,1128.493527100014,cross,"(480.0, -270.0)",0,3629.46369999554,714.7519999998622,True,False
15,3,1128.5101740999962,cross,"(480.0, -270.0)",0,3646.1106999777257,731.3989999820478,True,False
15,3,1128.5277665000176,cross,"(480.0, -270.0)",0,3663.703099999111,748.9914000034332,True,False
15,3,1128.5448770999792,cross,"(480.0, -270.0)",0,3680.8136999607086,766.1019999650307,True,False
15,3,1128.559660000028,cross,"(480.0, -270.0)",0,3695.596600009594,780.8849000139162,True,False
15,3,1128.577460200002,cross,"(480.0, -270.0)",0,3713.3967999834567,798.6850999877788,True,False
15,3,1128.5934269999852,cross,"(480.0, -270.0)",0,3729.363599966746,814.6518999710679,True,False
15,3,1128.6104538000072,cross,"(480.0, -270.0)",0,3746.3903999887407,831.6786999930628,True,False
15,3,1128.6265152000124,cross,"(480.0, -270.0)",0,3762.451799993869,847.740099998191,True,False
15,3,1128.6443666000268,cross,"(480.0, -270.0)",0,3780.3032000083476,865.5915000126697,True,False
15,3,1128.6645757000078,cross,"(480.0, -270.0)",0,3800.51229998935,885.8005999936722,True,False
15,3,1128.6739230999956,cross,"(480.0, -270.0)",0,3809.859699977096,895.1479999814183,True,False
15,3,1128.6936015000101,cross,"(480.0, -270.0)",0,3829.5380999916233,914.8263999959454,True,False
15,3,1128.7106713000103,cross,"(480.0, -270.0)",0,3846.6078999917954,931.8961999961175,True,False
15,3,1128.7266126999748,cross,"(480.0, -270.0)",0,3862.5492999562994,947.8375999606214,True,False
15,3,1128.744295099983,cross,"(480.0, -270.0)",0,3880.2316999644972,965.5199999688193,True,False
15,3,1128.7598199999775,cross,"(480.0, -270.0)",0,3895.756599958986,981.0448999633081,True,False
15,3,1128.777244900004,cross,"(480.0, -270.0)",0,3913.1814999855123,998.4697999898344,True,False
15,3,1128.7929674999905,cross,"(480.0, -270.0)",0,3928.9040999719873,1014.1923999763094,True,False
15,3,1128.8117362000048,cross,"(480.0, -270.0)",0,3947.6727999863215,1032.9610999906436,True,False
15,3,1128.8260948000243,cross,"(480.0, -270.0)",0,3962.031400005799,1047.3197000101209,True,False
15,3,1128.8448573999922,cross,"(480.0, -270.0)",0,3980.7939999736845,1066.0822999780066,True,False
15,3,1128.860055199999,cross,"(480.0, -270.0)",0,3995.991799980402,1081.280099984724,True,False
15,3,1128.877810999984,cross,"(480.0, -270.0)",0,4013.747599965427,1099.0358999697492,True,False
15,3,1128.8925090000266,cross,"(480.0, -270.0)",0,4028.4456000081263,1113.7339000124484,True,False
15,3,1128.9103904999793,cross,"(480.0, -270.0)",0,4046.327099960763,1131.615399965085,True,False
15,3,1128.9260765999788,cross,"(480.0, -270.0)",0,4062.0131999603473,1147.3014999646693,True,False
15,3,1128.9448468000046,cross,"(480.0, -270.0)",0,4080.783399986103,1166.0716999904253,True,False
15,3,1128.959689499985,cross,"(480.0, -270.0)",0,4095.6260999664664,1180.9143999707885,True,False
15,3,1128.9771999000222,cross,"(480.0, -270.0)",0,4113.136500003748,1198.4248000080697,True,False
15,3,1128.9936580000212,cross,"(480.0, -270.0)",0,4129.594600002747,1214.882900007069,True,False
15,3,1129.0098867000197,cross,"(480.0, -270.0)",0,4145.8233000012115,1231.1116000055335,True,False
15,3,1129.0268714000122,cross,"(480.0, -270.0)",0,4162.8079999936745,1248.0962999979965,True,False
15,3,1129.0444267999846,cross,"(480.0, -270.0)",0,4180.363399966154,1265.6516999704763,True,False
15,3,1129.0603186999797,cross,"(480.0, -270.0)",0,4196.255299961194,1281.5435999655165,True,False
15,3,1129.0770639000111,cross,"(480.0, -270.0)",0,4213.000499992631,1298.2887999969535,True,False
15,3,1129.093511199986,cross,"(480.0, -270.0)",0,4229.447799967602,1314.736099971924,True,False
15,3,1129.1064112000167,cross,"(480.0, -270.0)",0,4242.347799998242,1327.6361000025645,True,False
15,3,1129.1265862000291,cross,"(480.0, -270.0)",0,4262.522800010629,1347.811100014951,True,False
15,3,1129.1439005000284,cross,"(480.0, -270.0)",0,4279.8371000099,1365.1254000142217,True,False
15,3,1129.1598924000282,cross,"(480.0, -270.0)",0,4295.8290000096895,1381.1173000140116,True,False
15,3,1129.1779421999818,cross,"(480.0, -270.0)",0,4313.878799963277,1399.167099967599,True,False
15,3,1129.1928295000107,cross,"(480.0, -270.0)",0,4328.766099992208,1414.0543999965303,True,False
15,3,1129.2101954999962,cross,"(480.0, -270.0)",0,4346.132099977694,1431.4203999820165,True,False
15,3,1129.2269699000171,cross,"(480.0, -270.0)",0,4362.906499998644,1448.194800002966,True,False
15,3,1129.2445270000026,cross,"(480.0, -270.0)",0,4380.463599984068,1465.7518999883905,True,False
15,3,1129.2597938000108,cross,"(480.0, -270.0)",0,4395.730399992317,1481.018699996639,True,False
15,3,1129.2776019999874,cross,"(480.0, -270.0)",0,4413.538599968888,1498.82689997321,True,False
15,3,1129.2925414000056,cross,"(480.0, -270.0)",0,4428.477999987081,1513.7662999914028,True,False
15,3,1129.3098141999799,cross,"(480.0, -270.0)",0,4445.750799961388,1531.0390999657102,True,False
15,3,1129.3260238000075,cross,"(480.0, -270.0)",0,4461.960399989039,1547.2486999933608,True,False
15,3,1129.3442479000078,cross,"(480.0, -270.0)",0,4480.184499989264,1565.4727999935858,True,False
15,3,1129.359795700002,cross,"(480.0, -270.0)",0,4495.732299983501,1581.0205999878235,True,False
15,3,1129.3776130999904,cross,"(480.0, -270.0)",0,4513.549699971918,1598.83799997624,True,False
15,3,1129.392753800028,cross,"(480.0, -270.0)",0,4528.690400009509,1613.9787000138313,True,False
15,3,1129.4097829000093,cross,"(480.0, -270.0)",0,4545.71949999081,1631.0077999951318,True,False
15,3,1129.4264081000001,cross,"(480.0, -270.0)",0,4562.344699981622,1647.6329999859445,True,False
15,3,1129.4432783999946,cross,"(480.0, -270.0)",0,4579.214999976102,1664.5032999804243,True,False
15,3,1129.4596345999744,cross,"(480.0, -270.0)",0,4595.571199955884,1680.8594999602064,True,False
15,3,1129.4767625000095,cross,"(480.0, -270.0)",0,4612.699099991005,1697.987399995327,True,False
15,3,1129.4933092999854,cross,"(480.0, -270.0)",0,4629.245899966918,1714.53419997124,True,False
15,3,1129.5102192999911,cross,"(480.0, -270.0)",0,4646.155899972655,1731.444199976977,True,False
15,3,1129.5263279000064,cross,"(480.0, -270.0)",0,4662.264499987941,1747.5527999922633,True,False
15,3,1129.544611899997,cross,"(480.0, -270.0)",0,4680.548499978613,1765.8367999829352,True,False
15,3,1129.759711700026,star,"(-480.0, 270.0)",264.09150002291426,4895.648300007451,1980.9366000117734,False,True
15,4,1131.876371100021,t,"(480.0, 270.0)",251.14880001638085,7012.307700002566,2116.6593999951147,False,True
