trial_num,selection_num,timestamp,shape,position,fixation_duration_ms,rt_from_trial_start_ms,rt_from_previous_selection_ms,queued_selection,was_executed
13,1,851.8884928000043,star,"(-480.0, 270.0)",266.74479999928735,1112.380500009749,1112.380500009749,False,True
13,2,852.8555067999987,star,"(-480.0, 270.0)",251.28709999262355,2079.3945000041276,967.0139999943785,True,False
13,2,852.8728058999986,star,"(-480.0, 270.0)",0,2096.6936000040732,984.3130999943241,True,False
13,2,852.8888769000187,star,"(-480.0, 270.0)",0,2112.764600024093,1000.3841000143439,True,False
13,2,852.9041734000202,star,"(-480.0, 270.0)",0,2128.0611000256613,1015.6806000159122,True,False
13,2,852.9223917000054,star,"(-480.0, 270.0)",0,2146.279400010826,1033.898900001077,True,False
13,2,852.9378927000216,star,"(-480.0, 270.0)",0,2161.7804000270553,1049.3999000173062,True,False
13,2,852.9554658000125,star,"(-480.0, 270.0)",0,2179.3535000178963,1066.9730000081472,True,False
13,2,852.9707763000042,star,"(-480.0, 270.0)",0,2194.664000009652,1082.2834999999031,True,False
13,2,852.9886129999941,star,"(-480.0, 270.0)",0,2212.5006999995094,1100.1201999897603,True,False
13,2,853.0040268000157,star,"(-480.0, 270.0)",0,2227.914500021143,1115.5340000113938,True,False
13,2,853.0219780000043,star,"(-480.0, 270.0)",0,2245.8657000097446,1133.4851999999955,True,False
13,2,853.037184100016,star,"(-480.0, 270.0)",0,2261.0718000214547,1148.6913000117056,True,False
13,2,853.0550340000191,star,"(-480.0, 270.0)",0,2278.9217000245117,1166.5412000147626,True,False
13,2,853.0705486999941,star,"(-480.0, 270.0)",0,2294.4363999995403,1182.0558999897912,True,False
13,2,853.0888799999957,star,"(-480.0, 270.0)",0,2312.7677000011317,1200.3871999913827,True,False
13,2,853.1042684999993,star,"(-480.0, 270.0)",0,2328.1562000047415,1215.7756999949925,True,False
13,2,853.122059700021,star,"(-480.0, 270.0)",0,2345.947400026489,1233.56690001674,True,False
13,2,853.1374289999949,star,"(-480.0, 270.0)",0,2361.316700000316,1248.9361999905668,True,False
13,2,853.1552401999943,star,"(-480.0, 270.0)",0,2379.1278999997303,1266.7473999899812,True,False
13,2,853.1708167000033,star,"(-480.0, 270.0)",0,2394.704400008777,1282.323899999028,True,False
13,2,853.1886264000204,star,"(-480.0, 270.0)",0,2412.5141000258736,1300.1336000161245,True,False
13,2,853.2040451000212,star,"(-480.0, 270.0)",0,2427.9328000266105,1315.5523000168614,True,False
13,2,853.221773600002,star,"(-480.0, 270.0)",0,2445.6613000074867,1333.2807999977376,True,False
13,2,853.2372940000205,star,"(-480.0, 270.0)",0,2461.181700025918,1348.8012000161689,True,False
13,2,853.2554100000125,star,"(-480.0, 270.0)",0,2479.2977000179235,1366.9172000081744,True,False
13,2,853.270863200014,star,"(-480.0, 270.0)",0,2494.750900019426,1382.3704000096768,True,False
13,2,853.2884232000215,star,"(-480.0, 270.0)",0,2512.3109000269324,1399.9304000171833,True,False
13,2,853.3039441000146,star,"(-480.0, 270.0)",0,2527.831800020067,1415.451300010318,True,False
13,2,853.3236488999974,star,"(-480.0, 270.0)",0,2547.536600002786,1435.156099993037,True,False
13,2,853.3388808000018,star,"(-480.0, 270.0)",0,2562.7685000072233,1450.3879999974743,True,False
13,2,853.3408935000189,circle,"(-480.0, -270.0)",250.32479999936186,2564.7812000242993,1452.4007000145502,True,False
13,2,853.3582456000149,circle,"(-480.0, -270.0)",0,2582.1333000203595,1469.7528000106104,True,False
13,2,853.3710938000004,circle,"(-480.0, -270.0)",0,2594.981500005815,1482.600999996066,True,False
13,2,853.3891385000024,circle,"(-480.0, -270.0)",0,2613.02620000788,1500.645699998131,True,False
13,2,853.4043781000073,circle,"(-480.0, -270.0)",0,2628.2658000127412,1515.8853000029922,True,False
13,2,853.4219412000093,circle,"(-480.0, -270.0)",0,2645.828900014749,1533.4484000049997,True,False
13,2,853.4372745000001,circle,"(-480.0, -270.0)",0,2661.162200005492,1548.781699995743,True,False
13,2,853.4552162000036,circle,"(-480.0, -270.0)",0,2679.1039000090677,1566.7233999993186,True,False
13,2,853.4706470000092,circle,"(-480.0, -270.0)",0,2694.5347000146285,1582.1542000048794,True,False
13,2,853.4886386000144,circle,"(-480.0, -270.0)",0,2712.5263000198174,1600.1458000100683,True,False
13,2,853.5039423000126,circle,"(-480.0, -270.0)",0,2727.8300000180025,1615.4495000082534,True,False
13,2,853.5219564000145,circle,"(-480.0, -270.0)",0,2745.8441000198945,1633.4636000101455,True,False
13,2,853.5373349000001,circle,"(-480.0, -270.0)",0,2761.222600005567,1648.842099995818,True,False
13,2,853.5556508000009,circle,"(-480.0, -270.0)",0,2779.5385000063106,1667.1579999965616,True,False
13,2,853.5707536000118,circle,"(-480.0, -270.0)",0,2794.641300017247,1682.260800007498,True,False
13,2,853.588620399998,circle,"(-480.0, -270.0)",0,2812.5081000034697,1700.1275999937207,True,False
13,2,853.6041319000069,circle,"(-480.0, -270.0)",0,2828.0196000123397,1715.6391000025906,True,False
13,2,853.6217142000096,circle,"(-480.0, -270.0)",0,2845.6019000150263,1733.2214000052772,True,False
13,2,853.6373964000086,circle,"(-480.0, -270.0)",0,2861.284100014018,1748.9036000042688,True,False
13,2,853.6552497000084,circle,"(-480.0, -270.0)",0,2879.1374000138603,1766.7569000041112,True,False
13,2,853.6706501000153,circle,"(-480.0, -270.0)",0,2894.537800020771,1782.157300011022,True,False
13,2,853.6884859999991,circle,"(-480.0, -270.0)",0,2912.3737000045367,1799.9931999947876,True,False
13,2,854.5544294000138,circle,"(-480.0, -270.0)",266.67840001755394,3778.317100019194,2665.936600009445,False,True
13,3,854.821479700011,circle,"(-480.0, -270.0)",264.56330000655726,4045.367400016403,267.05029999720864,True,False
13,3,854.8384376000031,circle,"(-480.0, -270.0)",0,4062.325300008524,284.00819998933,True,False
13,3,854.8548133000149,circle,"(-480.0, -270.0)",0,4078.7010000203736,300.3839000011794,True,False
13,3,854.8698284999991,circle,"(-480.0, -270.0)",0,4093.7162000045646,315.3990999853704,True,False
13,3,854.8881418000092,circle,"(-480.0, -270.0)",0,4112.029500014614,333.7123999954201,True,False
13,3,854.9039456000028,circle,"(-480.0, -270.0)",0,4127.833300008206,349.5161999890115,True,False
13,3,854.9215595000132,circle,"(-480.0, -270.0)",0,4145.44720001868,367.13009999948554,True,False
13,3,854.9365059999982,circle,"(-480.0, -270.0)",0,4160.393700003624,382.0765999844298,True,False
13,3,854.9563976000063,circle,"(-480.0, -270.0)",0,4180.285300011747,401.9681999925524,True,False
13,3,854.969823499996,circle,"(-480.0, -270.0)",0,4193.711200001417,415.39409998222254,True,False
13,3,854.9890236000065,circle,"(-480.0, -270.0)",0,4212.9113000119105,434.5941999927163,True,False
13,3,855.003097000008,circle,"(-480.0, -270.0)",0,4226.984700013418,448.66759999422356,True,False
13,3,855.0215170000156,circle,"(-480.0, -270.0)",0,4245.404700021027,467.08760000183247,True,False
13,3,855.0371577000187,circle,"(-480.0, -270.0)",0,4261.045400024159,482.7283000049647,True,False
13,3,855.0549073000147,circle,"(-480.0, -270.0)",0,4278.795000020182,500.4779000009876,True,False
13,3,855.0703414000163,circle,"(-480.0, -270.0)",0,4294.2291000217665,515.9120000025723,True,False
13,3,855.0879786000005,circle,"(-480.0, -270.0)",0,4311.866300005931,533.5491999867372,True,False
13,3,855.1032982000033,circle,"(-480.0, -270.0)",0,4327.185900008772,548.8687999895774,True,False
13,3,855.1212840999942,circle,"(-480.0, -270.0)",0,4345.171799999662,566.8546999804676,True,False
13,3,855.1362378000049,circle,"(-480.0, -270.0)",0,4360.1255000103265,581.8083999911323,True,False
13,3,855.1545987999998,circle,"(-480.0, -270.0)",0,4378.486500005238,600.1693999860436,True,False
13,3,855.1699097999954,circle,"(-480.0, -270.0)",0,4393.797500000801,615.4803999816068,True,False
13,3,855.1880876000214,circle,"(-480.0, -270.0)",0,4411.975300026825,633.6582000076305,True,False
13,3,855.2034660000063,circle,"(-480.0, -270.0)",0,4427.353700011736,649.0365999925416,True,False
13,3,855.2210818000021,circle,"(-480.0, -270.0)",0,4444.9695000075735,666.6523999883793,True,False
13,3,855.2365912999958,circle,"(-480.0, -270.0)",0,4460.479000001214,682.1618999820203,True,False
13,3,855.2543040000019,circle,"(-480.0, -270.0)",0,4478.191700007301,699.8745999881066,True,False
13,3,855.270067400008,circle,"(-480.0, -270.0)",0,4493.955100013409,715.6379999942146,True,False
13,3,855.2880302999984,circle,"(-480.0, -270.0)",0,4511.918000003789,733.6008999845944,True,False
13,3,855.3035668999946,circle,"(-480.0, -270.0)",0,4527.4546000000555,749.1374999808613,True,False
13,3,855.3210077999975,circle,"(-480.0, -270.0)",0,4544.895500002895,766.5783999837004,True,False
13,3,855.33657460002,circle,"(-480.0, -270.0)",0,4560.462300025392,782.1452000061981,True,False
13,3,855.3549132000189,circle,"(-480.0, -270.0)",0,4578.800900024362,800.4838000051677,True,False
13,3,855.3696343000047,circle,"(-480.0, -270.0)",0,4593.522000010125,815.2048999909312,True,False
13,3,855.3878464000009,circle,"(-480.0, -270.0)",0,4611.734100006288,833.4169999870937,True,False
13,3,855.4032423000026,circle,"(-480.0, -270.0)",0,4627.130000008037,848.8128999888431,True,False
13,3,855.4210904000211,circle,"(-480.0, -270.0)",0,4644.978100026492,866.6610000072978,True,False
13,3,855.4361975000065,circle,"(-480.0, -270.0)",0,4660.085200011963,881.7680999927688,True,False
13,3,855.4543120000162,circle,"(-480.0, -270.0)",0,4678.199700021651,899.8826000024565,True,False
13,3,855.4701433000155,circle,"(-480.0, -270.0)",0,4694.031000020914,915.7139000017196,True,False
13,3,855.488105700002,circle,"(-480.0, -270.0)",0,4711.993400007486,933.6762999882922,True,False
13,3,855.504225200013,circle,"(-480.0, -270.0)",0,4728.112900018459,949.795799999265,True,False
13,3,855.5213536000228,circle,"(-480.0, -270.0)",0,4745.241300028283,966.924200009089,True,False
13,3,855.5363625000173,circle,"(-480.0, -270.0)",0,4760.2502000227105,981.9331000035163,True,False
13,3,855.5544329000113,circle,"(-480.0, -270.0)",0,4778.320600016741,1000.0034999975469,True,False
13,3,855.5704362000106,circle,"(-480.0, -270.0)",0,4794.323900016025,1016.0067999968305,True,False
13,3,855.5877793999971,circle,"(-480.0, -270.0)",0,4811.6671000025235,1033.3499999833293,True,False
13,3,855.6027596000058,circle,"(-480.0, -270.0)",0,4826.6473000112455,1048.3301999920513,True,False
13,3,855.6214185999997,circle,"(-480.0, -270.0)",0,4845.306300005177,1066.9891999859829,True,False
13,3,855.6365954000212,circle,"(-480.0, -270.0)",0,4860.483100026613,1082.166000007419,True,False
13,3,855.6546899999958,circle,"(-480.0, -270.0)",0,4878.577700001188,1100.2605999819934,True,False
13,3,855.6699316000158,circle,"(-480.0, -270.0)",0,4893.819300021278,1115.5022000020836,True,False
13,3,855.687090899999,circle,"(-480.0, -270.0)",0,4910.978600004455,1132.661499985261,True,False
13,3,855.7037285999977,circle,"(-480.0, -270.0)",0,4927.616300003137,1149.2991999839433,True,False
13,3,855.7211491000198,circle,"(-480.0, -270.0)",0,4945.036800025264,1166.7197000060696,True,False
13,3,855.7365726999997,circle,"(-480.0, -270.0)",0,4960.460400005104,1182.1432999859098,True,False
13,3,855.7544464000093,circle,"(-480.0, -270.0)",0,4978.334100014763,1200.0169999955688,True,False
13,3,855.7703037000028,circle,"(-480.0, -270.0)",0,4994.191400008276,1215.874299989082,True,False
13,3,855.7880273000046,circle,"(-480.0, -270.0)",0,5011.915000010049,1233.5978999908548,True,False
13,3,855.8033017000125,circle,"(-480.0, -270.0)",0,5027.18940001796,1248.8722999987658,True,False
13,3,855.8214734000212,circle,"(-480.0, -270.0)",0,5045.361100026639,1267.044000007445,True,False
13,3,855.8365523999964,circle,"(-480.0, -270.0)",0,5060.44010000187,1282.1229999826755,True,False
13,3,855.8546651000215,circle,"(-480.0, -270.0)",0,5078.552800026955,1300.235700007761,True,False
13,3,855.8708218999964,circle,"(-480.0, -270.0)",0,5094.709600001806,1316.3924999826122,True,False
13,3,855.8879966000095,circle,"(-480.0, -270.0)",0,5111.884300014935,1333.5671999957412,True,False
13,3,855.9032455999986,circle,"(-480.0, -270.0)",0,5127.133300004061,1348.8161999848671,True,False
13,3,855.9211514000199,circle,"(-480.0, -270.0)",0,5145.039100025315,1366.7220000061207,True,False
13,3,855.9361018000054,circle,"(-480.0, -270.0)",0,5159.989500010852,1381.6723999916576,True,False
13,3,855.9543262000079,circle,"(-480.0, -270.0)",0,5178.213900013361,1399.896799994167,True,False
13,3,855.9697275000217,circle,"(-480.0, -270.0)",0,5193.615200027125,1415.2981000079308,True,False
13,3,855.9879740000179,circle,"(-480.0, -270.0)",0,5211.861700023292,1433.5446000040974,True,False
13,3,856.0030800999957,circle,"(-480.0, -270.0)",0,5226.967800001148,1448.650699981954,True,False
13,3,856.0211087000207,circle,"(-480.0, -270.0)",0,5244.996400026139,1466.6793000069447,True,False
13,3,856.0367175000138,circle,"(-480.0, -270.0)",0,5260.605200019199,1482.2881000000052,True,False
13,3,856.0547535000078,circle,"(-480.0, -270.0)",0,5278.641200013226,1500.3240999940317,True,False
13,3,856.0702777999977,circle,"(-480.0, -270.0)",0,5294.165500003146,1515.8483999839518,True,False
13,3,856.0880362000025,circle,"(-480.0, -270.0)",0,5311.923900007969,1533.6067999887746,True,False
13,3,856.1033786000044,circle,"(-480.0, -270.0)",0,5327.266300009796,1548.9491999906022,True,False
13,3,856.1212872000178,circle,"(-480.0, -270.0)",0,5345.174900023267,1566.8578000040725,True,False
13,3,856.1368959000101,circle,"(-480.0, -270.0)",0,5360.783600015566,1582.4664999963716,True,False
13,3,856.1544569999969,circle,"(-480.0, -270.0)",0,5378.344700002344,1600.0275999831501,True,False
13,3,856.1696152000222,circle,"(-480.0, -270.0)",0,5393.50290002767,1615.1858000084758,True,False
13,3,856.1880036000221,circle,"(-480.0, -270.0)",0,5411.8913000274915,1633.5742000082973,True,False
13,3,856.2033571000211,circle,"(-480.0, -270.0)",0,5427.2448000265285,1648.9277000073344,True,False
13,3,856.2212703000114,circle,"(-480.0, -270.0)",0,5445.158000016818,1666.8408999976236,True,False
13,3,856.2367117000103,circle,"(-480.0, -270.0)",0,5460.599400015781,1682.2822999965865,True,False
13,3,856.2544274000102,circle,"(-480.0, -270.0)",0,5478.315100015607,1699.9979999964125,True,False
13,3,856.2699718000076,circle,"(-480.0, -270.0)",0,5493.859500013059,1715.5423999938648,True,False
13,3,856.2880369000195,circle,"(-480.0, -270.0)",0,5511.92460002494,1733.6075000057463,True,False
13,3,856.3032462999981,circle,"(-480.0, -270.0)",0,5527.134000003571,1748.8168999843765,True,False
13,3,856.3213447000016,circle,"(-480.0, -270.0)",0,5545.23240000708,1766.915299987886,True,False
13,3,859.4533612999949,cross,"(480.0, -270.0)",250.7995999767445,8677.249000000302,4898.931899981108,False,True
13,4,861.8524025999941,t,"(480.0, 270.0)",250.43999997433275,11076.290299999528,2399.041299999226,False,True
15,1,873.0148100000224,star,"(-480.0, 270.0)",264.00780002586544,264.03030002256855,264.03030002256855,False,True
15,2,873.8147541000217,star,"(-480.0, 270.0)",250.95600000349805,1063.9744000218343,799.9440999992657,True,False
15,2,873.8320594000106,star,"(-480.0, 270.0)",0,1081.279700010782,817.2493999882136,True,False
15,2,873.8483764000121,star,"(-480.0, 270.0)",0,1097.5967000122182,833.5663999896497,True,False
15,2,873.8635610000056,star,"(-480.0, 270.0)",0,1112.7813000057358,848.7509999831673,True,False
15,2,873.8815827000071,star,"(-480.0, 270.0)",0,1130.8030000072904,866.7726999847218,True,False
15,2,873.8964357000077,star,"(-480.0, 270.0)",0,1145.6560000078753,881.6256999853067,True,False
15,2,873.9148329000163,star,"(-480.0, 270.0)",0,1164.0532000164967,900.0228999939281,True,False
15,2,873.9301571999968,star,"(-480.0, 270.0)",0,1179.3774999969173,915.3471999743488,True,False
15,2,873.9486435000144,star,"(-480.0, 270.0)",0,1197.863800014602,933.8334999920335,True,False
15,2,873.9641752000025,star,"(-480.0, 270.0)",0,1213.3955000026617,949.3651999800932,True,False
15,2,873.9815046000003,star,"(-480.0, 270.0)",0,1230.7249000004958,966.6945999779273,True,False
15,2,873.9970943999942,star,"(-480.0, 270.0)",0,1246.3146999944001,982.2843999718316,True,False
15,2,874.0150215000031,star,"(-480.0, 270.0)",0,1264.2418000032194,1000.2114999806508,True,False
15,2,874.0303901000007,star,"(-480.0, 270.0)",0,1279.61040000082,1015.5800999782514,True,False
15,2,874.0485390000104,star,"(-480.0, 270.0)",0,1297.7593000105117,1033.728999987943,True,False
15,2,874.0636138000118,star,"(-480.0, 270.0)",0,1312.834100011969,1048.8037999894004,True,False
15,2,874.0816473000159,star,"(-480.0, 270.0)",0,1330.867600016063,1066.8372999934945,True,False
15,2,874.0971159000183,star,"(-480.0, 270.0)",0,1346.3362000184134,1082.3058999958448,True,False
15,2,874.1149277000222,star,"(-480.0, 270.0)",0,1364.1480000223964,1100.117699999828,True,False
15,2,874.1297460000205,star,"(-480.0, 270.0)",0,1378.9663000206929,1114.9359999981243,True,False
15,2,874.1484221999999,star,"(-480.0, 270.0)",0,1397.6425000000745,1133.612199977506,True,False
15,2,874.1641990000207,star,"(-480.0, 270.0)",0,1413.4193000209052,1149.3889999983367,True,False
15,2,874.1821036000038,star,"(-480.0, 270.0)",0,1431.3239000039175,1167.293599981349,True,False
15,2,874.1970843000163,star,"(-480.0, 270.0)",0,1446.3046000164468,1182.2742999938782,True,False
15,2,874.215116700012,star,"(-480.0, 270.0)",0,1464.337000012165,1200.3066999895964,True,False
15,2,874.2306027000013,star,"(-480.0, 270.0)",0,1479.8230000014883,1215.7926999789197,True,False
15,2,874.2483101999969,star,"(-480.0, 270.0)",0,1497.530499997083,1233.5001999745145,True,False
15,2,874.2620616000204,star,"(-480.0, 270.0)",0,1511.281900020549,1247.2515999979805,True,False
15,2,874.2815289999999,star,"(-480.0, 270.0)",0,1530.749300000025,1266.7189999774564,True,False
15,2,874.2965784000116,star,"(-480.0, 270.0)",0,1545.798700011801,1281.7683999892324,True,False
15,2,874.3147878000163,star,"(-480.0, 270.0)",0,1564.0081000165083,1299.9777999939397,True,False
15,2,874.3299357000215,star,"(-480.0, 270.0)",0,1579.1560000216123,1315.1256999990437,True,False
15,2,874.3487315000093,star,"(-480.0, 270.0)",0,1597.9518000094686,1333.9214999869,True,False
15,2,874.3636377000075,star,"(-480.0, 270.0)",0,1612.8580000076909,1348.8276999851223,True,False
15,2,874.3815742000006,star,"(-480.0, 270.0)",0,1630.7945000007749,1366.7641999782063,True,False
15,2,874.397151000012,star,"(-480.0, 270.0)",0,1646.371300012106,1382.3409999895375,True,False
15,2,874.4149891000125,star,"(-480.0, 270.0)",0,1664.2094000126235,1400.179099990055,True,False
15,2,874.4318010999996,star,"(-480.0, 270.0)",0,1681.0213999997359,1416.9910999771673,True,False
15,2,874.4484109000186,star,"(-480.0, 270.0)",0,1697.6312000188045,1433.600899996236,True,False
15,2,874.4635170999973,star,"(-480.0, 270.0)",0,1712.7373999974225,1448.707099974854,True,False
15,2,874.4814017000026,star,"(-480.0, 270.0)",0,1730.622000002768,1466.5916999801993,True,False
15,2,874.4969433000078,star,"(-480.0, 270.0)",0,1746.1636000080034,1482.1332999854349,True,False
15,2,874.5118272000109,star,"(-480.0, 270.0)",0,1761.0475000110455,1497.017199988477,True,False
15,2,874.5313551000145,star,"(-480.0, 270.0)",0,1780.5754000146408,1516.5450999920722,True,False
15,2,874.5463754000084,star,"(-480.0, 270.0)",0,1795.5957000085618,1531.5653999859933,True,False
15,2,874.5647412000108,star,"(-480.0, 270.0)",0,1813.9615000109188,1549.9311999883503,True,False
15,2,874.5803695000068,star,"(-480.0, 270.0)",0,1829.5898000069428,1565.5594999843743,True,False
15,2,874.5979537999956,star,"(-480.0, 270.0)",0,1847.1740999957547,1583.143799973186,True,False
15,2,874.6135590000194,star,"(-480.0, 270.0)",0,1862.7793000196107,1598.7489999970421,True,False
15,2,874.6311758999946,star,"(-480.0, 270.0)",0,1880.3961999947205,1616.365899972152,True,False
15,2,874.646484500001,star,"(-480.0, 270.0)",0,1895.7048000011127,1631.6744999785442,True,False
15,2,874.6615964999946,star,"(-480.0, 270.0)",0,1910.816799994791,1646.7864999722224,True,False
15,2,874.681467700022,star,"(-480.0, 270.0)",0,1930.6880000222009,1666.6576999996323,True,False
15,2,874.6970219000068,star,"(-480.0, 270.0)",0,1946.2422000069637,1682.2118999843951,True,False
15,2,874.7149389999977,star,"(-480.0, 270.0)",0,1964.1592999978457,1700.128999975277,True,False
15,2,874.7304232000024,star,"(-480.0, 270.0)",0,1979.6435000025667,1715.6131999799982,True,False
15,2,874.7498647000175,star,"(-480.0, 270.0)",0,1999.0850000176579,1735.0546999950893,True,False
15,2,874.763495799998,star,"(-480.0, 270.0)",0,2012.7160999982152,1748.6857999756467,True,False
15,2,874.7824330000149,star,"(-480.0, 270.0)",0,2031.653300015023,1767.6229999924544,True,False
15,2,875.5140514000086,circle,"(-480.0, -270.0)",251.2921000015922,2763.2717000087723,2499.2413999862038,False,True
15,3,875.7796168000204,circle,"(-480.0, -270.0)",263.0426000105217,3028.83710002061,265.5654000118375,True,False
15,3,875.799716700014,circle,"(-480.0, -270.0)",0,3048.9370000141207,285.6653000053484,True,False
15,3,875.8130421999958,circle,"(-480.0, -270.0)",0,3062.2624999959953,298.990799987223,True,False
15,3,875.8309974000149,circle,"(-480.0, -270.0)",0,3080.217700015055,316.9460000062827,True,False
15,3,875.8462439000141,circle,"(-480.0, -270.0)",0,3095.4642000142485,332.1925000054762,True,False
15,3,875.8643758000107,circle,"(-480.0, -270.0)",0,3113.596100010909,350.3244000021368,True,False
15,3,875.8795219000021,circle,"(-480.0, -270.0)",0,3128.742200002307,365.47049999353476,True,False
15,3,875.8978231000074,circle,"(-480.0, -270.0)",0,3147.043400007533,383.7716999987606,True,False
15,3,875.9128725000191,circle,"(-480.0, -270.0)",0,3162.092800019309,398.8211000105366,True,False
15,3,875.9319492000213,circle,"(-480.0, -270.0)",0,3181.169500021497,417.8978000127245,True,False
15,3,875.9466378000216,circle,"(-480.0, -270.0)",0,3195.8581000217237,432.58640001295134,True,False
15,3,875.9700487999944,circle,"(-480.0, -270.0)",0,3219.2690999945626,455.99739998579025,True,False
15,3,875.9807485000056,circle,"(-480.0, -270.0)",0,3229.968800005736,466.6970999969635,True,False
15,3,875.9978216000018,circle,"(-480.0, -270.0)",0,3247.041900001932,483.7701999931596,True,False
15,3,876.011370799999,circle,"(-480.0, -270.0)",0,3260.5910999991465,497.3193999903742,True,False
15,3,876.0309717000055,circle,"(-480.0, -270.0)",0,3280.192000005627,516.9202999968547,True,False
15,3,876.0461381000059,circle,"(-480.0, -270.0)",0,3295.35840000608,532.0866999973077,True,False
15,3,876.0642764999939,circle,"(-480.0, -270.0)",0,3313.4967999940272,550.2250999852549,True,False
15,3,876.0796769000008,circle,"(-480.0, -270.0)",0,3328.897200000938,565.6254999921657,True,False
15,3,876.0977512999962,circle,"(-480.0, -270.0)",0,3346.9715999963228,583.6998999875505,True,False
15,3,876.1130214000004,circle,"(-480.0, -270.0)",0,3362.2417000005953,598.969999991823,True,False
15,3,876.1313048000156,circle,"(-480.0, -270.0)",0,3380.5251000158023,617.25340000703,True,False
15,3,876.1447451999993,circle,"(-480.0, -270.0)",0,3393.9654999994673,630.693799990695,True,False
15,3,876.1647061000112,circle,"(-480.0, -270.0)",0,3413.9264000114053,650.654700002633,True,False
15,3,876.1796700000123,circle,"(-480.0, -270.0)",0,3428.8903000124265,665.6186000036541,True,False
15,3,876.1984213000105,circle,"(-480.0, -270.0)",0,3447.6416000106838,684.3699000019114,True,False
15,3,876.2129648000118,circle,"(-480.0, -270.0)",0,3462.185100011993,698.9134000032209,True,False
15,3,876.2310826000175,circle,"(-480.0, -270.0)",0,3480.302900017705,717.0312000089325,True,False
15,3,876.2462656999996,circle,"(-480.0, -270.0)",0,3495.4859999998007,732.2142999910284,True,False
15,3,876.2643500000122,circle,"(-480.0, -270.0)",0,3513.5703000123613,750.298600003589,True,False
15,3,876.2812779000087,circle,"(-480.0, -270.0)",0,3530.4982000088785,767.2265000001062,True,False
15,3,876.2976987000147,circle,"(-480.0, -270.0)",0,3546.9190000148956,783.6473000061233,True,False
15,3,876.3128802000138,circle,"(-480.0, -270.0)",0,3562.100500013912,798.8288000051398,True,False
15,3,876.3310151000042,circle,"(-480.0, -270.0)",0,3580.2354000043124,816.9636999955401,True,False
15,3,876.3465377000102,circle,"(-480.0, -270.0)",0,3595.7580000103917,832.4863000016194,True,False
15,3,876.36480760001,circle,"(-480.0, -270.0)",0,3614.0279000101145,850.7562000013422,True,False
15,3,876.3795440999966,circle,"(-480.0, -270.0)",0,3628.764399996726,865.4926999879535,True,False
15,3,876.3980717000086,circle,"(-480.0, -270.0)",0,3647.292000008747,884.0202999999747,True,False
15,3,876.4128818000027,circle,"(-480.0, -270.0)",0,3662.102100002812,898.8303999940399,True,False
15,3,876.4311899000022,circle,"(-480.0, -270.0)",0,3680.4102000023704,917.1384999935981,True,False
15,3,876.447217900015,circle,"(-480.0, -270.0)",0,3696.438200015109,933.1665000063367,True,False
15,3,876.4644126000057,circle,"(-480.0, -270.0)",0,3713.632900005905,950.3611999971326,True,False
15,3,876.480200799997,circle,"(-480.0, -270.0)",0,3729.4210999971256,966.1493999883533,True,False
15,3,876.4944767999987,circle,"(-480.0, -270.0)",0,3743.697099998826,980.4253999900538,True,False
15,3,876.5143875000067,circle,"(-480.0, -270.0)",0,3763.6078000068665,1000.3360999980941,True,False
15,3,876.5293706000084,circle,"(-480.0, -270.0)",0,3778.5909000085667,1015.3191999997944,True,False
15,3,876.5477954999951,circle,"(-480.0, -270.0)",0,3797.015799995279,1033.7440999865066,True,False
15,3,876.5626427000097,circle,"(-480.0, -270.0)",0,3811.8630000099074,1048.591300001135,True,False
15,3,876.5809843000025,circle,"(-480.0, -270.0)",0,3830.2046000026166,1066.9328999938443,True,False
15,3,876.5944322000141,circle,"(-480.0, -270.0)",0,3843.6525000142865,1080.3808000055142,True,False
15,3,876.6142734000168,circle,"(-480.0, -270.0)",0,3863.4937000169884,1100.2220000082161,True,False
15,3,876.6295288999972,circle,"(-480.0, -270.0)",0,3878.749199997401,1115.4774999886286,True,False
15,3,876.6478532000037,circle,"(-480.0, -270.0)",0,3897.0735000038985,1133.8017999951262,True,False
15,3,876.6628873000154,circle,"(-480.0, -270.0)",0,3912.107600015588,1148.8359000068158,True,False
15,3,876.6813684000226,circle,"(-480.0, -270.0)",0,3930.5887000227813,1167.317000014009,True,False
15,3,876.6944465000124,circle,"(-480.0, -270.0)",0,3943.666800012579,1180.3951000038069,True,False
15,3,876.7144103000173,circle,"(-480.0, -270.0)",0,3963.6306000174955,1200.3589000087231,True,False
15,3,876.7295436999993,circle,"(-480.0, -270.0)",0,3978.763999999501,1215.4922999907285,True,False
15,3,876.7476282000134,circle,"(-480.0, -270.0)",0,3996.8485000135843,1233.576800004812,True,False
15,3,876.763024600019,circle,"(-480.0, -270.0)",0,4012.244900019141,1248.9732000103686,True,False
15,3,876.7808894000191,circle,"(-480.0, -270.0)",0,4030.1097000192385,1266.8380000104662,True,False
15,3,876.7961017000198,circle,"(-480.0, -270.0)",0,4045.322000019951,1282.0503000111785,True,False
15,3,876.8143731000018,circle,"(-480.0, -270.0)",0,4063.5934000019915,1300.3216999932192,True,False
15,3,876.8293623000209,circle,"(-480.0, -270.0)",0,4078.5826000210363,1315.310900012264,True,False
15,3,876.8475213000202,circle,"(-480.0, -270.0)",0,4096.741600020323,1333.4699000115506,True,False
15,3,876.8628075000015,circle,"(-480.0, -270.0)",0,4112.02780000167,1348.7560999928974,True,False
15,3,876.8808296000061,circle,"(-480.0, -270.0)",0,4130.04990000627,1366.7781999974977,True,False
15,3,876.8943961000186,circle,"(-480.0, -270.0)",0,4143.6164000188,1380.3447000100277,True,False
15,3,876.9146680000122,circle,"(-480.0, -270.0)",0,4163.8883000123315,1400.6166000035591,True,False
15,3,876.9294791000139,circle,"(-480.0, -270.0)",0,4178.699400014011,1415.4277000052389,True,False
15,3,876.9479003000015,circle,"(-480.0, -270.0)",0,4197.120600001654,1433.8488999928813,True,False
15,3,876.9628057999944,circle,"(-480.0, -270.0)",0,4212.026099994546,1448.7543999857735,True,False
15,3,876.981525900017,circle,"(-480.0, -270.0)",0,4230.746200017165,1467.474500008393,True,False
15,3,876.9962276000006,circle,"(-480.0, -270.0)",0,4245.447900000727,1482.1761999919545,True,False
15,3,877.0143674999999,circle,"(-480.0, -270.0)",0,4263.587800000096,1500.3160999913234,True,False
15,3,877.0292947000125,circle,"(-480.0, -270.0)",0,4278.515000012703,1515.243300003931,True,False
15,3,877.0473907999985,circle,"(-480.0, -270.0)",0,4296.6110999986995,1533.3393999899272,True,False
15,3,877.0626815000142,circle,"(-480.0, -270.0)",0,4311.901800014311,1548.6301000055391,True,False
15,3,877.0807544999989,circle,"(-480.0, -270.0)",0,4329.974799999036,1566.7030999902636,True,False
15,3,877.0960832000128,circle,"(-480.0, -270.0)",0,4345.30350001296,1582.031800004188,True,False
15,3,877.1142143000034,circle,"(-480.0, -270.0)",0,4363.434600003529,1600.162899994757,True,False
15,3,877.1293127000099,circle,"(-480.0, -270.0)",0,4378.533000010066,1615.2613000012934,True,False
15,3,877.1475581999985,circle,"(-480.0, -270.0)",0,4396.778499998618,1633.5067999898456,True,False
15,3,877.1628053000022,circle,"(-480.0, -270.0)",0,4412.02560000238,1648.7538999936078,True,False
15,3,877.1805593000026,circle,"(-480.0, -270.0)",0,4429.779600002803,1666.5078999940306,True,False
15,3,877.1961860000156,circle,"(-480.0, -270.0)",0,4445.406300015748,1682.1346000069752,True,False
15,3,877.2141869000043,circle,"(-480.0, -270.0)",0,4463.40720000444,1700.1354999956675,True,False
15,3,877.2294041000132,circle,"(-480.0, -270.0)",0,4478.624400013359,1715.352700004587,True,False
15,3,877.2472725000116,circle,"(-480.0, -270.0)",0,4496.492800011765,1733.221100002993,True,False
15,3,877.2630850000132,circle,"(-480.0, -270.0)",0,4512.305300013395,1749.0336000046227,True,False
15,3,877.2811519000097,circle,"(-480.0, -270.0)",0,4530.372200009879,1767.1005000011064,True,False
15,3,878.2795263000007,cross,"(480.0, -270.0)",266.4494999917224,5528.746600000886,2765.474899992114,False,True
15,4,880.2123240000219,t,"(480.0, 270.0)",250.33560002339073,7461.544300022069,1932.7977000211831,False,True
16,1,884.3446041000134,cross,"(480.0, -270.0)",263.02270000451244,263.04540000273846,263.04540000273846,False,True
16,2,884.811557900015,circle,"(-480.0, -270.0)",251.3852000120096,729.9992000043858,466.9538000016473,True,False
16,2,884.8286522999988,circle,"(-480.0, -270.0)",0,747.0935999881476,484.04819998540916,True,False
16,2,884.8454107000143,circle,"(-480.0, -270.0)",0,763.8520000036806,500.8066000009421,True,False
16,2,884.8603233000031,circle,"(-480.0, -270.0)",0,778.764599992428,515.7191999896895,True,False
16,2,884.8780961000011,circle,"(-480.0, -270.0)",0,796.5373999904841,533.4919999877457,True,False
16,2,884.8955842000141,circle,"(-480.0, -270.0)",0,814.0255000034813,550.9801000007428,True,False
16,2,884.9119943999976,circle,"(-480.0, -270.0)",0,830.4356999869924,567.3902999842539,True,False
16,2,884.9272901999939,circle,"(-480.0, -270.0)",0,845.7314999832306,582.6860999804921,True,False
16,2,884.9450138999964,circle,"(-480.0, -270.0)",0,863.4551999857649,600.4097999830265,True,False
16,2,884.9608487000223,circle,"(-480.0, -270.0)",0,879.2900000116788,616.2446000089403,True,False
16,2,884.9782381000114,circle,"(-480.0, -270.0)",0,896.6794000007212,633.6339999979828,True,False
16,2,884.9936089999974,circle,"(-480.0, -270.0)",0,912.0502999867313,649.0048999839928,True,False
16,2,885.0112918000086,circle,"(-480.0, -270.0)",0,929.7330999979749,666.6876999952365,True,False
16,2,885.0269078999991,circle,"(-480.0, -270.0)",0,945.3491999884136,682.3037999856751,True,False
16,2,885.044893000013,circle,"(-480.0, -270.0)",0,963.334300002316,700.2888999995776,True,False
16,2,885.0605004999961,circle,"(-480.0, -270.0)",0,978.9417999854777,715.8963999827392,True,False
16,2,885.0783650999947,circle,"(-480.0, -270.0)",0,996.8063999840524,733.760999981314,True,False
16,2,885.0931862000143,circle,"(-480.0, -270.0)",0,1011.6275000036694,748.582100000931,True,False
16,2,885.1120507000014,circle,"(-480.0, -270.0)",0,1030.4919999907725,767.446599988034,True,False
16,2,885.1276901999954,circle,"(-480.0, -270.0)",0,1046.1314999847673,783.0860999820288,True,False
16,2,885.1448414000042,circle,"(-480.0, -270.0)",0,1063.2826999935787,800.2372999908403,True,False
16,2,885.160367000004,circle,"(-480.0, -270.0)",0,1078.8082999933977,815.7628999906592,True,False
16,2,885.178282000008,circle,"(-480.0, -270.0)",0,1096.723299997393,833.6778999946546,True,False
16,2,885.193788900011,circle,"(-480.0, -270.0)",0,1112.2302000003401,849.1847999976017,True,False
16,2,885.2116860999959,circle,"(-480.0, -270.0)",0,1130.1273999852128,867.0819999824744,True,False
16,2,885.2264249,circle,"(-480.0, -270.0)",0,1144.8661999893375,881.820799986599,True,False
16,2,885.244819900021,circle,"(-480.0, -270.0)",0,1163.2612000103109,900.2158000075724,True,False
16,2,885.2604912999959,circle,"(-480.0, -270.0)",0,1178.9325999852736,915.8871999825351,True,False
16,2,885.2781961000001,circle,"(-480.0, -270.0)",0,1196.637399989413,933.5919999866746,True,False
16,2,885.2931113000086,circle,"(-480.0, -270.0)",0,1211.5525999979582,948.5071999952197,True,False
16,2,885.3115039000113,circle,"(-480.0, -270.0)",0,1229.9452000006568,966.8997999979183,True,False
16,2,885.3130741000059,cross,"(480.0, -270.0)",266.53530000476167,1231.51539999526,968.4699999925215,True,False
16,2,885.3284931000089,cross,"(480.0, -270.0)",0,1246.9343999982812,983.8889999955427,True,False
16,2,885.3446350000158,cross,"(480.0, -270.0)",0,1263.0763000051957,1000.0309000024572,True,False
16,2,885.3605251999979,cross,"(480.0, -270.0)",0,1278.9664999872912,1015.9210999845527,True,False
16,2,885.3780355000054,cross,"(480.0, -270.0)",0,1296.476799994707,1033.4313999919686,True,False
16,2,885.3935820000188,cross,"(480.0, -270.0)",0,1312.0233000081498,1048.9779000054114,True,False
16,2,885.4118914999999,cross,"(480.0, -270.0)",0,1330.3327999892645,1067.287399986526,True,False
16,2,885.4267045000161,cross,"(480.0, -270.0)",0,1345.1458000054117,1082.1004000026733,True,False
16,2,885.4449650000024,cross,"(480.0, -270.0)",0,1363.406299991766,1100.3608999890275,True,False
16,2,885.4609191000054,cross,"(480.0, -270.0)",0,1379.3603999947663,1116.3149999920279,True,False
16,2,885.4782427000173,cross,"(480.0, -270.0)",0,1396.684000006644,1133.6386000039056,True,False
16,2,885.4937773999991,cross,"(480.0, -270.0)",0,1412.2186999884434,1149.173299985705,True,False
16,2,885.5121008999995,cross,"(480.0, -270.0)",0,1430.5421999888495,1167.496799986111,True,False
16,2,885.529947700008,cross,"(480.0, -270.0)",0,1448.3889999974053,1185.3435999946669,True,False
16,2,885.5448107999982,cross,"(480.0, -270.0)",0,1463.252099987585,1200.2066999848466,True,False
16,2,885.560813100019,cross,"(480.0, -270.0)",0,1479.254400008358,1216.2090000056196,True,False
16,2,885.5784478000132,cross,"(480.0, -270.0)",0,1496.8891000025906,1233.843699999852,True,False
16,2,885.5939014000178,cross,"(480.0, -270.0)",0,1512.3427000071388,1249.2973000044003,True,False
16,2,885.6116481000208,cross,"(480.0, -270.0)",0,1530.0894000101835,1267.044000007445,True,False
16,2,885.6270531000046,cross,"(480.0, -270.0)",0,1545.4943999939132,1282.4489999911748,True,False
16,2,885.6452310000022,cross,"(480.0, -270.0)",0,1563.6722999915946,1300.6268999888562,True,False
16,2,885.6601003000105,cross,"(480.0, -270.0)",0,1578.5415999998804,1315.496199997142,True,False
16,2,885.6779021999973,cross,"(480.0, -270.0)",0,1596.3434999866877,1333.2980999839492,True,False
16,2,885.693322600011,cross,"(480.0, -270.0)",0,1611.7639000003692,1348.7184999976307,True,False
16,2,885.7115160000103,cross,"(480.0, -270.0)",0,1629.9572999996599,1366.9118999969214,True,False
16,2,885.7263417000067,cross,"(480.0, -270.0)",0,1644.782999996096,1381.7375999933574,True,False
16,2,885.7447575000115,cross,"(480.0, -270.0)",0,1663.1988000008278,1400.1533999980893,True,False
16,2,885.7598062000179,cross,"(480.0, -270.0)",0,1678.2475000072736,1415.2021000045352,True,False
16,2,885.7780042999948,cross,"(480.0, -270.0)",0,1696.4455999841448,1433.4001999814063,True,False
16,2,885.7936341000022,cross,"(480.0, -270.0)",0,1712.0753999915905,1449.029999988852,True,False
16,2,885.8117806999944,cross,"(480.0, -270.0)",0,1730.221999983769,1467.1765999810304,True,False
16,2,885.8266829000204,cross,"(480.0, -270.0)",0,1745.124200009741,1482.0788000070024,True,False
16,2,885.8448304000194,cross,"(480.0, -270.0)",0,1763.2717000087723,1500.2263000060339,True,False
16,2,885.8601296000124,cross,"(480.0, -270.0)",0,1778.570900001796,1515.5254999990575,True,False
16,2,885.8779818000039,cross,"(480.0, -270.0)",0,1796.4230999932624,1533.377699990524,True,False
16,2,885.8940095000144,cross,"(480.0, -270.0)",0,1812.4508000037167,1549.4054000009783,True,False
16,2,885.9123200000031,cross,"(480.0, -270.0)",0,1830.7612999924459,1567.7158999897074,True,False
16,2,885.9276918999967,cross,"(480.0, -270.0)",0,1846.1331999860704,1583.087799983332,True,False
16,2,885.94501700002,cross,"(480.0, -270.0)",0,1863.4583000093699,1600.4129000066314,True,False
16,2,885.9620046000055,cross,"(480.0, -270.0)",0,1880.445899994811,1617.4004999920726,True,False
16,2,885.9828929000068,cross,"(480.0, -270.0)",0,1901.3341999961995,1638.288799993461,True,False
16,2,885.9966312000179,cross,"(480.0, -270.0)",0,1915.072500007227,1652.0271000044886,True,False
16,2,886.011247300019,cross,"(480.0, -270.0)",0,1929.688600008376,1666.6432000056375,True,False
16,2,886.0274575999938,cross,"(480.0, -270.0)",0,1945.898899983149,1682.8534999804106,True,False
16,2,886.0453183000209,cross,"(480.0, -270.0)",0,1963.7596000102349,1700.7142000074964,True,False
16,2,886.0611185000162,cross,"(480.0, -270.0)",0,1979.559800005518,1716.5144000027794,True,False
16,2,886.0781822999998,cross,"(480.0, -270.0)",0,1996.6235999891069,1733.5781999863684,True,False
16,2,886.0935158000211,cross,"(480.0, -270.0)",0,2011.957100010477,1748.9117000077385,True,False
16,2,886.1115915999981,cross,"(480.0, -270.0)",0,2030.0328999874182,1766.9874999846797,True,False
16,2,886.1266678000102,cross,"(480.0, -270.0)",0,2045.1090999995358,1782.0636999967974,True,False
16,2,886.1447831999976,cross,"(480.0, -270.0)",0,2063.2244999869727,1800.1790999842342,True,False
16,2,886.5108782000025,circle,"(-480.0, -270.0)",266.70819998253137,2429.319499991834,2166.2740999890957,False,True
16,3,886.778097500006,circle,"(-480.0, -270.0)",264.39130000653677,2696.5387999953236,267.2193000034895,True,False
16,3,886.7951810999948,circle,"(-480.0, -270.0)",0,2713.6223999841604,284.3028999923263,True,False
16,3,886.8114643000008,circle,"(-480.0, -270.0)",0,2729.905599990161,300.586099998327,True,False
16,3,886.8276800000167,circle,"(-480.0, -270.0)",0,2746.1213000060525,316.8018000142183,True,False
16,3,886.8443931000074,circle,"(-480.0, -270.0)",0,2762.834399996791,333.51490000495687,True,False
16,3,886.8600359999982,circle,"(-480.0, -270.0)",0,2778.4772999875713,349.15779999573715,True,False
16,3,886.8777594999992,circle,"(-480.0, -270.0)",0,2796.2007999885827,366.88129999674857,True,False
16,3,886.8931348000187,circle,"(-480.0, -270.0)",0,2811.5761000080965,382.2566000162624,True,False
16,3,886.9110827000113,circle,"(-480.0, -270.0)",0,2829.5240000006743,400.2045000088401,True,False
16,3,886.9269996999938,circle,"(-480.0, -270.0)",0,2845.4409999831114,416.12149999127723,True,False
16,3,886.9450663000171,circle,"(-480.0, -270.0)",0,2863.5076000064146,434.1881000145804,True,False
16,3,886.9603778000164,circle,"(-480.0, -270.0)",0,2878.819100005785,449.49960001395084,True,False
16,3,886.9779206000094,circle,"(-480.0, -270.0)",0,2896.3618999987375,467.04240000690334,True,False
16,3,886.9938467000029,circle,"(-480.0, -270.0)",0,2912.287999992259,482.9685000004247,True,False
16,3,887.0117740000132,circle,"(-480.0, -270.0)",0,2930.215300002601,500.89580001076683,True,False
16,3,887.0264850000094,circle,"(-480.0, -270.0)",0,2944.9262999987695,515.6068000069354,True,False
16,3,887.0446061000112,circle,"(-480.0, -270.0)",0,2963.047400000505,533.727900008671,True,False
16,3,887.0600654000009,circle,"(-480.0, -270.0)",0,2978.5066999902483,549.1871999984141,True,False
16,3,887.0777003999974,circle,"(-480.0, -270.0)",0,2996.141699986765,566.822199994931,True,False
16,3,887.093111299997,circle,"(-480.0, -270.0)",0,3011.5525999863166,582.2330999944825,True,False
16,3,887.1113415000145,circle,"(-480.0, -270.0)",0,3029.782800003886,600.4633000120521,True,False
16,3,887.1262868000194,circle,"(-480.0, -270.0)",0,3044.728100008797,615.4086000169627,True,False
16,3,887.1444170000032,circle,"(-480.0, -270.0)",0,3062.858299992513,633.5388000006787,True,False
16,3,887.159825300012,circle,"(-480.0, -270.0)",0,3078.2666000013705,648.9471000095364,True,False
16,3,887.1779258000024,circle,"(-480.0, -270.0)",0,3096.3670999917667,667.0475999999326,True,False
16,3,887.1930949999951,circle,"(-480.0, -270.0)",0,3111.5362999844365,682.2167999926023,True,False
16,3,887.2115416000015,circle,"(-480.0, -270.0)",0,3129.982899990864,700.6633999990299,True,False
16,3,887.2268136000203,circle,"(-480.0, -270.0)",0,3145.254900009604,715.93540001777,True,False
16,3,887.244752300001,circle,"(-480.0, -270.0)",0,3163.193599990336,733.8740999985021,True,False
16,3,887.2602008999966,circle,"(-480.0, -270.0)",0,3178.642199985916,749.3226999940816,True,False
16,3,887.277931699995,circle,"(-480.0, -270.0)",0,3196.3729999843054,767.0534999924712,True,False
16,3,887.2932304000133,circle,"(-480.0, -270.0)",0,3211.6717000026256,782.3522000107914,True,False
16,3,887.3114080000087,circle,"(-480.0, -270.0)",0,3229.8492999980226,800.5298000061885,True,False
16,3,887.3263905000058,circle,"(-480.0, -270.0)",0,3244.831799995154,815.51230000332,True,False
16,3,887.3445536000072,circle,"(-480.0, -270.0)",0,3262.9948999965563,833.6754000047222,True,False
16,3,887.3594756000093,circle,"(-480.0, -270.0)",0,3277.9168999986723,848.5974000068381,True,False
16,3,887.3776382000069,circle,"(-480.0, -270.0)",0,3296.0794999962673,866.7600000044331,True,False
16,3,887.3928998000047,circle,"(-480.0, -270.0)",0,3311.3410999940243,882.0216000021901,True,False
16,3,887.4111780000094,circle,"(-480.0, -270.0)",0,3329.6192999987397,900.2998000069056,True,False
16,3,887.4262015999993,circle,"(-480.0, -270.0)",0,3344.642899988685,915.3233999968506,True,False
16,3,887.4444663000177,circle,"(-480.0, -270.0)",0,3362.90760000702,933.5881000151858,True,False
16,3,887.4604962000158,circle,"(-480.0, -270.0)",0,3378.9375000051223,949.6180000132881,True,False
16,3,887.4778808999981,circle,"(-480.0, -270.0)",0,3396.3221999874804,967.0026999956463,True,False
16,3,887.493166500004,circle,"(-480.0, -270.0)",0,3411.6077999933623,982.2883000015281,True,False
16,3,887.5114314999955,circle,"(-480.0, -270.0)",0,3429.872799984878,1000.5532999930438,True,False
16,3,887.526532799995,circle,"(-480.0, -270.0)",0,3444.9740999843925,1015.6545999925584,True,False
16,3,887.5446450000163,circle,"(-480.0, -270.0)",0,3463.0863000056706,1033.7668000138365,True,False
16,3,887.5598995000182,circle,"(-480.0, -270.0)",0,3478.3408000075724,1049.0213000157382,True,False
16,3,887.5777189000219,circle,"(-480.0, -270.0)",0,3496.160200011218,1066.8407000193838,True,False
16,3,887.5930842999951,circle,"(-480.0, -270.0)",0,3511.525599984452,1082.206099992618,True,False
16,3,887.6112118000165,circle,"(-480.0, -270.0)",0,3529.6531000058167,1100.3336000139825,True,False
16,3,887.6262007000041,circle,"(-480.0, -270.0)",0,3544.6419999934733,1115.3225000016391,True,False
16,3,887.6444306000194,circle,"(-480.0, -270.0)",0,3562.8719000087585,1133.5524000169244,True,False
16,3,887.6597554000036,circle,"(-480.0, -270.0)",0,3578.1966999929864,1148.8772000011522,True,False
16,3,887.677897800022,circle,"(-480.0, -270.0)",0,3596.3391000113916,1167.0196000195574,True,False
16,3,887.6928473000007,circle,"(-480.0, -270.0)",0,3611.2885999900755,1181.9690999982413,True,False
16,3,887.7113040999975,circle,"(-480.0, -270.0)",0,3629.7453999868594,1200.4258999950252,True,False
16,3,887.7257446000003,circle,"(-480.0, -270.0)",0,3644.1858999896795,1214.8663999978453,True,False
16,3,887.7499238000019,circle,"(-480.0, -270.0)",0,3668.365099991206,1239.045599999372,True,False
16,3,887.7612623000168,circle,"(-480.0, -270.0)",0,3679.703600006178,1250.3841000143439,True,False
16,3,887.7778286999965,circle,"(-480.0, -270.0)",0,3696.269999985816,1266.9504999939818,True,False
16,3,887.7925703000219,circle,"(-480.0, -270.0)",0,3711.011600011261,1281.692100019427,True,False
16,3,887.8107441000175,circle,"(-480.0, -270.0)",0,3729.185400006827,1299.8659000149928,True,False
16,3,887.826012400008,circle,"(-480.0, -270.0)",0,3744.4536999973934,1315.1342000055593,True,False
16,3,887.8446355000196,circle,"(-480.0, -270.0)",0,3763.076800009003,1333.7573000171687,True,False
16,3,887.8601104000118,circle,"(-480.0, -270.0)",0,3778.551700001117,1349.2322000092827,True,False
16,3,887.8780540000007,circle,"(-480.0, -270.0)",0,3796.495299990056,1367.175799998222,True,False
16,3,887.8935404999938,circle,"(-480.0, -270.0)",0,3811.9817999831866,1382.6622999913525,True,False
16,3,887.9113790999982,circle,"(-480.0, -270.0)",0,3829.8203999875113,1400.5008999956772,True,False
16,3,887.926140800002,circle,"(-480.0, -270.0)",0,3844.582099991385,1415.2625999995507,True,False
16,3,887.9444013000175,circle,"(-480.0, -270.0)",0,3862.842600006843,1433.5231000150088,True,False
16,3,887.9596397000132,circle,"(-480.0, -270.0)",0,3878.0810000025667,1448.7615000107326,True,False
16,3,887.9776651000138,circle,"(-480.0, -270.0)",0,3896.106400003191,1466.786900011357,True,False
16,3,887.9929448000039,circle,"(-480.0, -270.0)",0,3911.3860999932513,1482.066600001417,True,False
16,3,888.0112630999938,circle,"(-480.0, -270.0)",0,3929.704399983166,1500.3848999913316,True,False
16,3,888.0265556999948,circle,"(-480.0, -270.0)",0,3944.9969999841414,1515.6774999923073,True,False
16,3,888.0443727000093,circle,"(-480.0, -270.0)",0,3962.813999998616,1533.494500006782,True,False
16,3,888.0596315000148,circle,"(-480.0, -270.0)",0,3978.0728000041563,1548.7533000123221,True,False
16,3,888.0774974999949,circle,"(-480.0, -270.0)",0,3995.9387999842875,1566.6192999924533,True,False
16,3,888.092753200006,circle,"(-480.0, -270.0)",0,4011.1944999953266,1581.8750000034925,True,False
16,3,888.1110656000092,circle,"(-480.0, -270.0)",0,4029.5068999985233,1600.1874000066891,True,False
16,3,888.126147700008,circle,"(-480.0, -270.0)",0,4044.5889999973588,1615.2695000055246,True,False
16,3,888.1442745999957,circle,"(-480.0, -270.0)",0,4062.715899985051,1633.3963999932166,True,False
16,3,888.1593954999989,circle,"(-480.0, -270.0)",0,4077.8367999882903,1648.5172999964561,True,False
16,3,888.1769261000154,circle,"(-480.0, -270.0)",0,4095.3674000047613,1666.0479000129271,True,False
16,3,888.1932314000151,circle,"(-480.0, -270.0)",0,4111.672700004419,1682.3532000125851,True,False
16,3,888.2112555000058,circle,"(-480.0, -270.0)",0,4129.696799995145,1700.3773000033107,True,False
16,3,888.2261203000089,circle,"(-480.0, -270.0)",0,4144.561599998269,1715.242100006435,True,False
16,3,888.2445595000172,circle,"(-480.0, -270.0)",0,4163.000800006557,1733.681300014723,True,False
16,3,888.2599729000067,circle,"(-480.0, -270.0)",0,4178.414199996041,1749.094700004207,True,False
16,3,888.2778885000153,circle,"(-480.0, -270.0)",0,4196.329800004605,1767.010300012771,True,False
16,3,888.5106779000198,star,"(-480.0, 270.0)",264.504200022202,4429.119200009154,1999.79970001732,False,True
16,4,890.9094325000187,circle,"(-480.0, -270.0)",266.6756999969948,6827.873800008092,2398.754599998938,False,True
