trial_num,selection_num,timestamp,shape,position,fixation_duration_ms,rt_from_trial_start_ms,rt_from_previous_selection_ms,queued_selection,was_executed
13,1,1222.035070199985,star,"(-480.0, 270.0)",261.3276999909431,261.35340001201257,261.35340001201257,False,True
13,2,1223.2875297000282,star,"(-480.0, 270.0)",251.4099000254646,1513.8129000551999,1252.4595000431873,True,False
13,2,1223.304975099978,star,"(-480.0, 270.0)",0,1531.2583000049926,1269.90489999298,True,False
13,2,1223.3209633000079,star,"(-480.0, 270.0)",0,1547.2465000348166,1285.893100022804,True,False
13,2,1223.336547199986,star,"(-480.0, 270.0)",0,1562.8304000128992,1301.4770000008866,True,False
13,2,1223.3555672999937,star,"(-480.0, 270.0)",0,1581.8505000206642,1320.4971000086516,True,False
13,2,1223.370897100016,star,"(-480.0, 270.0)",0,1597.1803000429645,1335.826900030952,True,False
13,2,1223.3876416999847,star,"(-480.0, 270.0)",0,1613.9249000116251,1352.5714999996126,True,False
13,2,1223.4030904999818,star,"(-480.0, 270.0)",0,1629.3737000087276,1368.020299996715,True,False
13,2,1223.42028999998,star,"(-480.0, 270.0)",0,1646.5732000069693,1385.2197999949567,True,False
13,2,1223.4362851000042,star,"(-480.0, 270.0)",0,1662.5683000311255,1401.214900019113,True,False
13,2,1223.45336330001,star,"(-480.0, 270.0)",0,1679.6465000370517,1418.2931000250392,True,False
13,2,1223.4696198999882,star,"(-480.0, 270.0)",0,1695.90310001513,1434.5497000031173,True,False
13,2,1223.4868600000045,star,"(-480.0, 270.0)",0,1713.1432000314817,1451.789800019469,True,False
13,2,1223.5028171000304,star,"(-480.0, 270.0)",0,1729.1003000573255,1467.746900045313,True,False
13,2,1223.5198323000222,star,"(-480.0, 270.0)",0,1746.1155000492,1484.7621000371873,True,False
13,2,1223.5352378999814,star,"(-480.0, 270.0)",0,1761.5211000083946,1500.167699996382,True,False
13,2,1223.553866799979,star,"(-480.0, 270.0)",0,1780.1500000059605,1518.796599993948,True,False
13,2,1223.5696329000057,star,"(-480.0, 270.0)",0,1795.9161000326276,1534.562700020615,True,False
13,2,1223.5872006000136,star,"(-480.0, 270.0)",0,1813.483800040558,1552.1304000285454,True,False
13,2,1223.6018095000181,star,"(-480.0, 270.0)",0,1828.0927000450902,1566.7393000330776,True,False
13,2,1223.6197648000089,star,"(-480.0, 270.0)",0,1846.0480000358075,1584.694600023795,True,False
13,2,1223.636848299997,star,"(-480.0, 270.0)",0,1863.1315000238828,1601.7781000118703,True,False
13,2,1223.6543805000256,star,"(-480.0, 270.0)",0,1880.663700052537,1619.3103000405245,True,False
13,2,1223.6686287000193,star,"(-480.0, 270.0)",0,1894.9119000462815,1633.558500034269,True,False
13,2,1223.6866851000232,star,"(-480.0, 270.0)",0,1912.9683000501245,1651.614900038112,True,False
13,2,1223.702919800009,star,"(-480.0, 270.0)",0,1929.2030000360683,1667.8496000240557,True,False
13,2,1223.7197050999966,star,"(-480.0, 270.0)",0,1945.9883000236005,1684.634900011588,True,False
13,2,1223.7358940999839,star,"(-480.0, 270.0)",0,1962.1773000108078,1700.8238999987952,True,False
13,2,1223.7535639000125,star,"(-480.0, 270.0)",0,1979.8471000394784,1718.4937000274658,True,False
13,2,1223.7682257000124,star,"(-480.0, 270.0)",0,1994.5089000393637,1733.155500027351,True,False
13,2,1223.7865462999907,star,"(-480.0, 270.0)",0,2012.8295000176877,1751.476100005675,True,False
13,2,1223.8014545000042,star,"(-480.0, 270.0)",0,2027.737700031139,1766.3843000191264,True,False
13,2,1223.8200163000147,star,"(-480.0, 270.0)",0,2046.2995000416413,1784.9461000296287,True,False
15,1,1236.5322942999774,star,"(-480.0, 270.0)",251.37859996175393,398.19330000318587,398.19330000318587,False,True
15,2,1237.597836299974,star,"(-480.0, 270.0)",266.1765999509953,1463.7352999998257,1065.5419999966398,True,False
15,2,1237.6182364000124,star,"(-480.0, 270.0)",0,1484.1354000382125,1085.9421000350267,True,False
15,2,1237.6319497000077,star,"(-480.0, 270.0)",0,1497.8487000335008,1099.655400030315,True,False
15,2,1237.647605700011,star,"(-480.0, 270.0)",0,1513.5047000367194,1115.3114000335336,True,False
15,2,1237.6645212000003,star,"(-480.0, 270.0)",0,1530.4202000261284,1132.2269000229426,True,False
15,2,1237.6809910000302,star,"(-480.0, 270.0)",0,1546.8900000560097,1148.6967000528239,True,False
15,2,1237.6984142999863,star,"(-480.0, 270.0)",0,1564.3133000121452,1166.1200000089593,True,False
15,2,1237.7156633000122,star,"(-480.0, 270.0)",0,1581.5623000380583,1183.3690000348724,True,False
15,2,1237.731482699979,star,"(-480.0, 270.0)",0,1597.3817000049166,1199.1884000017308,True,False
15,2,1237.7480014999746,star,"(-480.0, 270.0)",0,1613.9005000004545,1215.7071999972686,True,False
15,2,1237.7647595999879,star,"(-480.0, 270.0)",0,1630.658600013703,1232.4653000105172,True,False
15,2,1237.7809920000145,star,"(-480.0, 270.0)",0,1646.8910000403412,1248.6977000371553,True,False
15,2,1237.7981136000017,star,"(-480.0, 270.0)",0,1664.0126000274904,1265.8193000243045,True,False
15,2,1237.8144779999857,star,"(-480.0, 270.0)",0,1680.3770000115037,1282.1837000083178,True,False
15,2,1237.8313324999763,star,"(-480.0, 270.0)",0,1697.23150000209,1299.038199998904,True,False
15,2,1237.847756400006,star,"(-480.0, 270.0)",0,1713.655400031712,1315.462100028526,True,False
15,2,1237.8649551999988,star,"(-480.0, 270.0)",0,1730.8542000246234,1332.6609000214376,True,False
15,2,1237.880417599983,star,"(-480.0, 270.0)",0,1746.3166000088677,1348.1233000056818,True,False
15,2,1237.8981342000188,star,"(-480.0, 270.0)",0,1764.0332000446506,1365.8399000414647,True,False
15,2,1237.9142441999866,star,"(-480.0, 270.0)",0,1780.1432000123896,1381.9499000092037,True,False
15,2,1237.9313179000164,star,"(-480.0, 270.0)",0,1797.2169000422582,1399.0236000390723,True,False
15,2,1237.9475861000246,star,"(-480.0, 270.0)",0,1813.4851000504568,1415.291800047271,True,False
15,2,1237.96454429999,star,"(-480.0, 270.0)",0,1830.4433000157587,1432.2500000125729,True,False
15,2,1237.9813696999918,star,"(-480.0, 270.0)",0,1847.2687000175938,1449.075400014408,True,False
15,2,1237.9977919000085,star,"(-480.0, 270.0)",0,1863.6909000342712,1465.4976000310853,True,False
15,2,1238.0140799999936,star,"(-480.0, 270.0)",0,1879.9790000193752,1481.7857000161894,True,False
15,2,1238.0314753000275,star,"(-480.0, 270.0)",0,1897.3743000533432,1499.1810000501573,True,False
15,2,1238.0477095000097,star,"(-480.0, 270.0)",0,1913.6085000354797,1515.4152000322938,True,False
15,2,1238.0648170000059,star,"(-480.0, 270.0)",0,1930.7160000316799,1532.522700028494,True,False
15,2,1238.081044999999,star,"(-480.0, 270.0)",0,1946.9440000248142,1548.7507000216283,True,False
15,2,1238.0980626000091,star,"(-480.0, 270.0)",0,1963.9616000349633,1565.7683000317775,True,False
15,2,1238.11448009999,star,"(-480.0, 270.0)",0,1980.3791000158526,1582.1858000126667,True,False
15,2,1238.1330577000044,star,"(-480.0, 270.0)",0,1998.9567000302486,1600.7634000270627,True,False
15,2,1238.1469604999875,star,"(-480.0, 270.0)",0,2012.8595000132918,1614.666200010106,True,False
15,2,1238.1644868000294,star,"(-480.0, 270.0)",0,2030.3858000552282,1632.1925000520423,True,False
15,2,1238.1810894000228,star,"(-480.0, 270.0)",0,2046.9884000485763,1648.7951000453904,True,False
15,2,1238.1980559999938,star,"(-480.0, 270.0)",0,2063.9550000196323,1665.7617000164464,True,False
15,2,1238.2143343000207,star,"(-480.0, 270.0)",0,2080.2333000465296,1682.0400000433438,True,False
15,2,1238.2313385999878,star,"(-480.0, 270.0)",0,2097.2376000136137,1699.0443000104278,True,False
15,2,1238.2471968000173,star,"(-480.0, 270.0)",0,2113.0958000430837,1714.9025000398979,True,False
15,2,1238.2643517000251,star,"(-480.0, 270.0)",0,2130.250700050965,1732.057400047779,True,False
15,2,1238.281018699985,star,"(-480.0, 270.0)",0,2146.9177000108175,1748.7244000076316,True,False
15,2,1238.297785600007,star,"(-480.0, 270.0)",0,2163.684600032866,1765.4913000296801,True,False
15,2,1239.3464699999895,circle,"(-480.0, -270.0)",264.28040000610054,3212.3690000153147,2814.175700012129,False,True
15,3,1240.3471948999795,circle,"(-480.0, -270.0)",997.4398000049405,4213.093900005333,1000.7248999900185,True,False
15,3,1240.3666171000223,circle,"(-480.0, -270.0)",0,4232.5161000480875,1020.1471000327729,True,False
15,3,1240.3805853999802,circle,"(-480.0, -270.0)",0,4246.484400006011,1034.1153999906965,True,False
15,3,1240.3970704000094,circle,"(-480.0, -270.0)",0,4262.969400035217,1050.6004000199027,True,False
15,3,1240.4136061000172,circle,"(-480.0, -270.0)",0,4279.505100043025,1067.1361000277102,True,False
15,3,1240.4308084999793,circle,"(-480.0, -270.0)",0,4296.707500005141,1084.3384999898262,True,False
15,3,1240.4468379999744,circle,"(-480.0, -270.0)",0,4312.737000000197,1100.3679999848828,True,False
15,3,1240.4638015999808,circle,"(-480.0, -270.0)",0,4329.700600006618,1117.331599991303,True,False
15,3,1240.480053999985,circle,"(-480.0, -270.0)",0,4345.953000010923,1133.5839999956079,True,False
15,3,1240.4965774000157,circle,"(-480.0, -270.0)",0,4362.476400041487,1150.1074000261724,True,False
15,3,1240.5132996999891,circle,"(-480.0, -270.0)",0,4379.1987000149675,1166.8296999996528,True,False
15,3,1240.5303105000057,circle,"(-480.0, -270.0)",0,4396.209500031546,1183.840500016231,True,False
15,3,1240.5466568000265,circle,"(-480.0, -270.0)",0,4412.55580005236,1200.186800037045,True,False
15,3,1240.5636348000262,circle,"(-480.0, -270.0)",0,4429.533800052013,1217.1648000366986,True,False
15,3,1240.5798309000093,circle,"(-480.0, -270.0)",0,4445.729900035076,1233.3609000197612,True,False
15,3,1240.597185200022,circle,"(-480.0, -270.0)",0,4463.084200047888,1250.7152000325732,True,False
15,3,1240.6130389000173,circle,"(-480.0, -270.0)",0,4478.937900043093,1266.568900027778,True,False
15,3,1240.630627800012,circle,"(-480.0, -270.0)",0,4496.526800037827,1284.1578000225127,True,False
15,3,1240.647025400016,circle,"(-480.0, -270.0)",0,4512.924400041811,1300.5554000264965,True,False
15,3,1240.6636449000216,circle,"(-480.0, -270.0)",0,4529.543900047429,1317.1749000321142,True,False
15,3,1240.6802201999817,circle,"(-480.0, -270.0)",0,4546.119200007524,1333.7501999922097,True,False
15,3,1240.6976370000048,circle,"(-480.0, -270.0)",0,4563.536000030581,1351.1670000152662,True,False
15,3,1240.713426799979,circle,"(-480.0, -270.0)",0,4579.325800004881,1366.9567999895662,True,False
15,3,1240.7306084000156,circle,"(-480.0, -270.0)",0,4596.507400041446,1384.1384000261314,True,False
15,3,1240.746259699983,circle,"(-480.0, -270.0)",0,4612.158700008877,1399.789699993562,True,False
15,3,1240.7637141000014,circle,"(-480.0, -270.0)",0,4629.6131000272,1417.2441000118852,True,False
15,3,1240.7802740000188,circle,"(-480.0, -270.0)",0,4646.173000044655,1433.8040000293404,True,False
15,3,1240.7970019999775,circle,"(-480.0, -270.0)",0,4662.90100000333,1450.5319999880157,True,False
15,3,1240.813252300024,circle,"(-480.0, -270.0)",0,4679.151300049853,1466.782300034538,True,False
15,3,1240.8302664000075,circle,"(-480.0, -270.0)",0,4696.165400033351,1483.7964000180364,True,False
15,3,1240.8464419000084,circle,"(-480.0, -270.0)",0,4712.340900034178,1499.9719000188634,True,False
15,3,1240.8632195999962,circle,"(-480.0, -270.0)",0,4729.118600022048,1516.749600006733,True,False
15,3,1240.8804233000265,circle,"(-480.0, -270.0)",0,4746.32230005227,1533.9533000369556,True,False
15,3,1240.896817700006,circle,"(-480.0, -270.0)",0,4762.716700031888,1550.347700016573,True,False
15,3,1240.9133547000238,circle,"(-480.0, -270.0)",0,4779.253700049594,1566.8847000342794,True,False
15,3,1240.930457999988,circle,"(-480.0, -270.0)",0,4796.357000013813,1583.9879999984987,True,False
15,3,1240.9464025999769,circle,"(-480.0, -270.0)",0,4812.301600002684,1599.932599987369,True,False
15,3,1240.9636832000106,circle,"(-480.0, -270.0)",0,4829.582200036384,1617.2132000210695,True,False
15,3,1240.982815299998,circle,"(-480.0, -270.0)",0,4848.7143000238575,1636.3453000085428,True,False
15,3,1240.9965316000162,circle,"(-480.0, -270.0)",0,4862.430600041989,1650.0616000266746,True,False
15,3,1241.0131256000022,circle,"(-480.0, -270.0)",0,4879.02460002806,1666.6556000127457,True,False
15,3,1241.0302896000212,circle,"(-480.0, -270.0)",0,4896.188600047026,1683.8196000317112,True,False
15,3,1241.0463485000073,circle,"(-480.0, -270.0)",0,4912.247500033118,1699.8785000178032,True,False
15,3,1241.0634033000097,circle,"(-480.0, -270.0)",0,4929.302300035488,1716.9333000201732,True,False
15,3,1241.080023300019,circle,"(-480.0, -270.0)",0,4945.922300044913,1733.5533000295982,True,False
15,3,1241.0968298999942,circle,"(-480.0, -270.0)",0,4962.728900020011,1750.359900004696,True,False
15,3,1241.112974299991,circle,"(-480.0, -270.0)",0,4978.873300016858,1766.504300001543,True,False
15,3,1241.1306796999997,circle,"(-480.0, -270.0)",0,4996.578700025566,1784.2097000102513,True,False
16,1,1253.360579399974,circle,"(-480.0, -270.0)",264.0986999613233,264.1303999698721,264.1303999698721,False,True
16,2,1253.676755500026,cross,"(480.0, -270.0)",250.34480000613257,580.3065000218339,316.17610005196184,True,False
16,2,1253.696594499983,cross,"(480.0, -270.0)",0,600.1454999786802,336.0151000088081,True,False
16,2,1253.7103632999933,cross,"(480.0, -270.0)",0,613.9142999891192,349.7839000192471,True,False
16,2,1253.7276822000276,cross,"(480.0, -270.0)",0,631.2332000234164,367.10280005354434,True,False
16,2,1253.7443647999899,cross,"(480.0, -270.0)",0,647.9157999856398,383.78540001576766,True,False
16,2,1253.7615192999947,cross,"(480.0, -270.0)",0,665.0702999904752,400.9399000206031,True,False
16,2,1253.776992900006,cross,"(480.0, -270.0)",0,680.5439000017941,416.413500031922,True,False
16,2,1253.7943560000276,cross,"(480.0, -270.0)",0,697.907000023406,433.7766000535339,True,False
16,2,1253.8100534999976,cross,"(480.0, -270.0)",0,713.6044999933802,449.4741000235081,True,False
16,2,1253.8274488999741,cross,"(480.0, -270.0)",0,730.9998999699019,466.8695000000298,True,False
16,2,1253.8436955999932,cross,"(480.0, -270.0)",0,747.2465999890119,483.1162000191398,True,False
16,2,1253.8612070999807,cross,"(480.0, -270.0)",0,764.7580999764614,500.6277000065893,True,False
16,2,1253.8769200000097,cross,"(480.0, -270.0)",0,780.4710000054911,516.340600035619,True,False
16,2,1253.8939857999794,cross,"(480.0, -270.0)",0,797.5367999752052,533.4064000053331,True,False
16,2,1253.9113293000264,cross,"(480.0, -270.0)",0,814.880300022196,550.7499000523239,True,False
16,2,1253.92803369998,cross,"(480.0, -270.0)",0,831.5846999757923,567.4543000059202,True,False
16,2,1253.9438442999963,cross,"(480.0, -270.0)",0,847.3952999920584,583.2649000221863,True,False
16,2,1253.9611423999886,cross,"(480.0, -270.0)",0,864.6933999843895,600.5630000145175,True,False
16,2,1253.9764694999903,cross,"(480.0, -270.0)",0,880.0204999861307,615.8901000162587,True,False
16,2,1253.9946199000115,cross,"(480.0, -270.0)",0,898.1709000072442,634.0405000373721,True,False
16,2,1254.0102427999955,cross,"(480.0, -270.0)",0,913.7937999912538,649.6634000213817,True,False
16,2,1254.0280598999816,cross,"(480.0, -270.0)",0,931.610899977386,667.4805000075139,True,False
16,2,1254.0439512999728,cross,"(480.0, -270.0)",0,947.5022999686189,683.3718999987468,True,False
16,2,1254.0611258000135,cross,"(480.0, -270.0)",0,964.6768000093289,700.5464000394568,True,False
16,2,1254.0769099000026,cross,"(480.0, -270.0)",0,980.4608999984339,716.3305000285618,True,False
16,2,1254.0933059999952,cross,"(480.0, -270.0)",0,996.856999990996,732.7266000211239,True,False
16,2,1254.1100772999926,cross,"(480.0, -270.0)",0,1013.6282999883406,749.4979000184685,True,False
16,2,1254.127639800019,cross,"(480.0, -270.0)",0,1031.1908000148833,767.0604000450112,True,False
16,2,1254.1433742999798,cross,"(480.0, -270.0)",0,1046.9252999755554,782.7949000056833,True,False
16,2,1254.1600699999835,cross,"(480.0, -270.0)",0,1063.620999979321,799.4906000094488,True,False
16,2,1254.1766553000198,cross,"(480.0, -270.0)",0,1080.2063000155613,816.0759000456892,True,False
16,2,1254.1944687999785,cross,"(480.0, -270.0)",0,1098.0197999742813,833.8894000044093,True,False
16,2,1254.2103835999733,cross,"(480.0, -270.0)",0,1113.9345999690704,849.8041999991983,True,False
16,2,1254.226264900004,cross,"(480.0, -270.0)",0,1129.8158999998122,865.6855000299402,True,False
16,2,1254.2432296000188,cross,"(480.0, -270.0)",0,1146.7806000146084,882.6502000447363,True,False
16,2,1254.2606042000116,cross,"(480.0, -270.0)",0,1164.1552000073716,900.0248000374995,True,False
16,2,1254.2769572000252,cross,"(480.0, -270.0)",0,1180.508200020995,916.3778000511229,True,False
16,2,1254.2946482999832,cross,"(480.0, -270.0)",0,1198.1992999790236,934.0689000091515,True,False
16,2,1254.310112599982,cross,"(480.0, -270.0)",0,1213.6635999777354,949.5332000078633,True,False
16,2,1254.3265549999778,cross,"(480.0, -270.0)",0,1230.1059999736026,965.9756000037305,True,False
16,2,1254.3434141000034,cross,"(480.0, -270.0)",0,1246.9650999992155,982.8347000293434,True,False
16,2,1254.360351499985,cross,"(480.0, -270.0)",0,1263.9024999807589,999.7721000108868,True,False
16,2,1254.3765593999997,cross,"(480.0, -270.0)",0,1280.1103999954648,1015.9800000255927,True,False
16,2,1254.3933672999847,cross,"(480.0, -270.0)",0,1296.9182999804616,1032.7879000105895,True,False
16,2,1254.4101642000023,cross,"(480.0, -270.0)",0,1313.7151999981143,1049.5848000282422,True,False
16,2,1254.412537999975,circle,"(-480.0, -270.0)",250.58870000066236,1316.088999970816,1051.958600000944,True,False
16,2,1254.4296247999882,circle,"(-480.0, -270.0)",0,1333.1757999840192,1069.0454000141472,True,False
16,2,1254.4432100999984,circle,"(-480.0, -270.0)",0,1346.7610999941826,1082.6307000243105,True,False
16,2,1254.4608419000288,circle,"(-480.0, -270.0)",0,1364.3929000245407,1100.2625000546686,True,False
16,2,1254.4766468000016,circle,"(-480.0, -270.0)",0,1380.1977999974042,1116.0674000275321,True,False
16,2,1254.4938543000026,circle,"(-480.0, -270.0)",0,1397.4052999983542,1133.274900028482,True,False
16,2,1254.5100876999786,circle,"(-480.0, -270.0)",0,1413.638699974399,1149.508300004527,True,False
16,2,1254.5281536999973,circle,"(-480.0, -270.0)",0,1431.7046999931335,1167.5743000232615,True,False
16,2,1254.5433849000256,circle,"(-480.0, -270.0)",0,1446.9359000213444,1182.8055000514723,True,False
16,2,1254.5600414000219,circle,"(-480.0, -270.0)",0,1463.59240001766,1199.462000047788,True,False
16,2,1254.5767155999783,circle,"(-480.0, -270.0)",0,1480.2665999741293,1216.1362000042573,True,False
16,2,1254.593440000026,circle,"(-480.0, -270.0)",0,1496.9910000218078,1232.8606000519358,True,False
16,2,1254.6098610999761,circle,"(-480.0, -270.0)",0,1513.4120999719016,1249.2817000020295,True,False
16,2,1254.6271438000258,circle,"(-480.0, -270.0)",0,1530.6948000215925,1266.5644000517204,True,False
16,2,1254.6431003999896,circle,"(-480.0, -270.0)",0,1546.6513999854214,1282.5210000155494,True,False
16,2,1254.6604463999975,circle,"(-480.0, -270.0)",0,1563.9973999932408,1299.8670000233687,True,False
16,2,1254.6751970999758,circle,"(-480.0, -270.0)",0,1578.7480999715626,1314.6177000016905,True,False
16,2,1254.6934292999795,circle,"(-480.0, -270.0)",0,1596.9802999752574,1332.8499000053853,True,False
16,2,1254.709579300019,circle,"(-480.0, -270.0)",0,1613.1303000147454,1348.9999000448734,True,False
16,2,1254.727652099973,circle,"(-480.0, -270.0)",0,1631.2030999688432,1367.072699998971,True,False
16,2,1254.7430623000255,circle,"(-480.0, -270.0)",0,1646.6133000212722,1382.4829000514,True,False
16,2,1254.7605492000002,circle,"(-480.0, -270.0)",0,1664.100199996028,1399.969800026156,True,False
16,2,1254.7768595999805,circle,"(-480.0, -270.0)",0,1680.4105999763124,1416.2802000064403,True,False
16,2,1254.7944789999747,circle,"(-480.0, -270.0)",0,1698.0299999704584,1433.8996000005864,True,False
16,2,1254.8098137999768,circle,"(-480.0, -270.0)",0,1713.3647999726236,1449.2344000027515,True,False
16,2,1254.8264817000018,circle,"(-480.0, -270.0)",0,1730.0326999975368,1465.9023000276648,True,False
16,2,1254.8431213999866,circle,"(-480.0, -270.0)",0,1746.6723999823444,1482.5420000124723,True,False
16,2,1254.8604678999982,circle,"(-480.0, -270.0)",0,1764.018899993971,1499.888500024099,True,False
16,2,1254.8762789000175,circle,"(-480.0, -270.0)",0,1779.829900013283,1515.6995000434108,True,False
16,2,1254.8933106000186,circle,"(-480.0, -270.0)",0,1796.861600014381,1532.731200044509,True,False
16,2,1254.909934299998,circle,"(-480.0, -270.0)",0,1813.485299993772,1549.3549000239,True,False
16,2,1254.9261711,circle,"(-480.0, -270.0)",0,1829.7220999957062,1565.5917000258341,True,False
16,2,1254.9439400000265,circle,"(-480.0, -270.0)",0,1847.4910000222735,1583.3606000524014,True,False
16,2,1254.960320400016,circle,"(-480.0, -270.0)",0,1863.8714000117034,1599.7410000418313,True,False
16,2,1254.9765585000277,circle,"(-480.0, -270.0)",0,1880.1095000235364,1615.9791000536643,True,False
16,2,1254.9942240000237,circle,"(-480.0, -270.0)",0,1897.7750000194646,1633.6446000495926,True,False
16,2,1255.0097825999837,circle,"(-480.0, -270.0)",0,1913.3335999795236,1649.2032000096515,True,False
16,2,1255.0272109999787,circle,"(-480.0, -270.0)",0,1930.761999974493,1666.6316000046209,True,False
16,2,1255.0431351999869,circle,"(-480.0, -270.0)",0,1946.6861999826506,1682.5558000127785,True,False
16,2,1255.0596996999811,circle,"(-480.0, -270.0)",0,1963.2506999769248,1699.1203000070527,True,False
16,2,1255.0762560000294,circle,"(-480.0, -270.0)",0,1979.8070000251755,1715.6766000553034,True,False
16,2,1255.0933979999973,circle,"(-480.0, -270.0)",0,1996.9489999930374,1732.8186000231653,True,False
16,2,1255.109909299994,circle,"(-480.0, -270.0)",0,2013.4602999896742,1749.3299000198022,True,False
16,2,1255.1266821000027,circle,"(-480.0, -270.0)",0,2030.2330999984406,1766.1027000285685,True,False
16,2,1255.1430951000075,circle,"(-480.0, -270.0)",0,2046.6461000032723,1782.5157000334002,True,False
16,2,1255.2939451999846,star,"(-480.0, 270.0)",265.0642999797128,2197.496199980378,1933.365800010506,False,True
16,3,1256.7269934000215,star,"(-480.0, 270.0)",250.26310002431273,3630.544400017243,1433.0482000368647,True,False
16,3,1256.7450533999945,star,"(-480.0, 270.0)",0,3648.6043999902904,1451.1082000099123,True,False
16,3,1256.7601345999865,star,"(-480.0, 270.0)",0,3663.685599982273,1466.1894000018947,True,False
16,3,1256.775058500003,star,"(-480.0, 270.0)",0,3678.6094999988563,1481.1133000184782,True,False
16,3,1256.793663599994,star,"(-480.0, 270.0)",0,3697.2145999898203,1499.7184000094421,True,False
16,3,1256.8094373000204,star,"(-480.0, 270.0)",0,3712.98830001615,1515.4921000357717,True,False
16,3,1256.8270944000105,star,"(-480.0, 270.0)",0,3730.645400006324,1533.149200025946,True,False
16,3,1256.8422952999827,star,"(-480.0, 270.0)",0,3745.8462999784388,1548.3500999980606,True,False
16,3,1256.8606851000222,star,"(-480.0, 270.0)",0,3764.2361000180244,1566.7399000376463,True,False
16,3,1256.8762869000202,star,"(-480.0, 270.0)",0,3779.837900015991,1582.341700035613,True,False
16,3,1256.8938660999993,star,"(-480.0, 270.0)",0,3797.417099995073,1599.9209000146948,True,False
16,3,1256.9096376000089,star,"(-480.0, 270.0)",0,3813.1886000046507,1615.6924000242725,True,False
16,3,1256.9265621000086,star,"(-480.0, 270.0)",0,3830.1131000043824,1632.6169000240043,True,False
16,3,1256.9420835999772,star,"(-480.0, 270.0)",0,3845.634599972982,1648.1383999926038,True,False
16,3,1256.9601798999938,star,"(-480.0, 270.0)",0,3863.730899989605,1666.2347000092268,True,False
16,3,1256.9761152000283,star,"(-480.0, 270.0)",0,3879.666200024076,1682.1700000436977,True,False
16,3,1256.9936015999992,star,"(-480.0, 270.0)",0,3897.1525999950245,1699.6564000146464,True,False
16,3,1257.0082416000078,star,"(-480.0, 270.0)",0,3911.792600003537,1714.2964000231586,True,False
16,3,1257.026886000007,star,"(-480.0, 270.0)",0,3930.437000002712,1732.9408000223339,True,False
16,3,1257.0413564000046,star,"(-480.0, 270.0)",0,3944.9074000003748,1747.4112000199966,True,False
16,3,1257.0599827999831,star,"(-480.0, 270.0)",0,3963.5337999789044,1766.0375999985263,True,False
16,3,1258.857750999974,t,"(480.0, 270.0)",250.7987999706529,5761.301999969874,3563.8057999894954,False,True
16,4,1260.6578359000268,star,"(-480.0, 270.0)",485.03550002351403,7561.386900022626,1800.0849000527523,False,True
17,1,1264.838682200003,circle,"(-480.0, -270.0)",266.20190002722666,313.56689997483045,313.56689997483045,False,True
17,2,1266.4383371000295,circle,"(-480.0, -270.0)",250.29690004885197,1913.2218000013381,1599.6549000265077,True,False
17,2,1266.4568847999908,circle,"(-480.0, -270.0)",0,1931.7694999626838,1618.2025999878533,True,False
17,2,1266.4714730000123,circle,"(-480.0, -270.0)",0,1946.357699984219,1632.7908000093885,True,False
17,2,1266.4879275999847,circle,"(-480.0, -270.0)",0,1962.8122999565676,1649.2453999817371,True,False
17,2,1266.5048811000306,circle,"(-480.0, -270.0)",0,1979.7658000024967,1666.1989000276662,True,False
17,2,1266.5214008999756,circle,"(-480.0, -270.0)",0,1996.2855999474414,1682.718699972611,True,False
17,2,1266.5383964999928,circle,"(-480.0, -270.0)",0,2013.2811999646947,1699.7142999898642,True,False
17,2,1266.5548927999916,circle,"(-480.0, -270.0)",0,2029.7774999635294,1716.210599988699,True,False
17,2,1266.5720810000203,circle,"(-480.0, -270.0)",0,2046.9656999921426,1733.3988000173122,True,False
17,2,1266.5878953000065,circle,"(-480.0, -270.0)",0,2062.7799999783747,1749.2131000035442,True,False
17,2,1266.6047469999758,circle,"(-480.0, -270.0)",0,2079.6316999476403,1766.0647999728099,True,False
17,2,1267.4378332999768,t,"(480.0, 270.0)",266.4197999984026,2912.7179999486543,2599.151099973824,False,True
17,3,1268.3712709000101,star,"(-480.0, 270.0)",250.3355999942869,3846.155599982012,933.4376000333577,True,False
17,3,1268.3910966999829,star,"(-480.0, 270.0)",0,3865.9813999547623,953.263400006108,True,False
17,3,1268.404586300021,star,"(-480.0, 270.0)",0,3879.470999992918,966.7530000442639,True,False
17,3,1268.4205280999886,star,"(-480.0, 270.0)",0,3895.412799960468,982.6948000118136,True,False
17,3,1268.4377367999987,star,"(-480.0, 270.0)",0,3912.6214999705553,999.903500021901,True,False
17,3,1268.4541279000114,star,"(-480.0, 270.0)",0,3929.0125999832526,1016.2946000345983,True,False
17,3,1268.4710286000045,star,"(-480.0, 270.0)",0,3945.9132999763824,1033.195300027728,True,False
17,3,1268.4875087999972,star,"(-480.0, 270.0)",0,3962.393499969039,1049.6755000203848,True,False
17,3,1268.504514899978,star,"(-480.0, 270.0)",0,3979.3995999498293,1066.681600001175,True,False
17,3,1268.520540700003,star,"(-480.0, 270.0)",0,3995.42539997492,1082.7074000262655,True,False
17,3,1268.5378460999927,star,"(-480.0, 270.0)",0,4012.730799964629,1100.0128000159748,True,False
17,3,1268.5541031999746,star,"(-480.0, 270.0)",0,4028.9878999465145,1116.2698999978602,True,False
17,3,1268.571302300028,star,"(-480.0, 270.0)",0,4046.186999999918,1133.4690000512637,True,False
17,3,1268.5874377000146,star,"(-480.0, 270.0)",0,4062.322399986442,1149.6044000377879,True,False
17,3,1268.6045808999916,star,"(-480.0, 270.0)",0,4079.4655999634415,1166.7476000147872,True,False
17,3,1268.6209645000054,star,"(-480.0, 270.0)",0,4095.8491999772377,1183.1312000285834,True,False
17,3,1268.6371953000198,star,"(-480.0, 270.0)",0,4112.079999991693,1199.3620000430383,True,False
17,3,1268.6537101999857,star,"(-480.0, 270.0)",0,4128.594899957534,1215.8769000088796,True,False
17,3,1268.6712309999857,star,"(-480.0, 270.0)",0,4146.115699957591,1233.3977000089362,True,False
17,3,1268.687134900014,star,"(-480.0, 270.0)",0,4162.019599985797,1249.3016000371426,True,False
17,3,1268.7044225999853,star,"(-480.0, 270.0)",0,4179.307299957145,1266.5893000084907,True,False
17,3,1268.7207630000194,star,"(-480.0, 270.0)",0,4195.647699991241,1282.9297000425868,True,False
17,3,1268.737655200006,star,"(-480.0, 270.0)",0,4212.539899977855,1299.821900029201,True,False
17,3,1268.7541862999788,star,"(-480.0, 270.0)",0,4229.070999950636,1316.3530000019819,True,False
17,3,1268.7709280999843,star,"(-480.0, 270.0)",0,4245.812799956184,1333.0948000075296,True,False
17,3,1268.7876787999994,star,"(-480.0, 270.0)",0,4262.563499971293,1349.8455000226386,True,False
17,3,1268.8043918000185,star,"(-480.0, 270.0)",0,4279.276499990374,1366.5585000417195,True,False
17,3,1268.8208110000123,star,"(-480.0, 270.0)",0,4295.695699984208,1382.9777000355534,True,False
17,3,1268.8379145999788,star,"(-480.0, 270.0)",0,4312.799299950711,1400.081300002057,True,False
17,3,1268.8540282999747,star,"(-480.0, 270.0)",0,4328.912999946624,1416.1949999979697,True,False
17,3,1268.8710659000208,star,"(-480.0, 270.0)",0,4345.950599992648,1433.2326000439934,True,False
17,3,1268.887014899985,star,"(-480.0, 270.0)",0,4361.899599956814,1449.1816000081599,True,False
17,3,1268.9042256000102,star,"(-480.0, 270.0)",0,4379.1102999821305,1466.3923000334762,True,False
17,3,1268.9208213000093,star,"(-480.0, 270.0)",0,4395.705999981146,1482.988000032492,True,False
17,3,1268.93784899998,star,"(-480.0, 270.0)",0,4412.733699951787,1500.0157000031322,True,False
17,3,1268.953971299983,star,"(-480.0, 270.0)",0,4428.855999954976,1516.1380000063218,True,False
17,3,1268.9709174000309,star,"(-480.0, 270.0)",0,4445.802100002766,1533.0841000541113,True,False
17,3,1268.987395700009,star,"(-480.0, 270.0)",0,4462.280399980955,1549.5624000323005,True,False
17,3,1269.0043948999955,star,"(-480.0, 270.0)",0,4479.279599967413,1566.5616000187583,True,False
17,3,1269.02030199999,star,"(-480.0, 270.0)",0,4495.186699961778,1582.4687000131235,True,False
17,3,1269.037831099995,star,"(-480.0, 270.0)",0,4512.715799966827,1599.9978000181727,True,False
17,3,1269.0547129000188,star,"(-480.0, 270.0)",0,4529.597599990666,1616.8796000420116,True,False
17,3,1269.0710445999866,star,"(-480.0, 270.0)",0,4545.929299958516,1633.2113000098616,True,False
17,3,1269.0873251000303,star,"(-480.0, 270.0)",0,4562.209800002165,1649.4918000535108,True,False
17,3,1269.1044458000106,star,"(-480.0, 270.0)",0,4579.330499982461,1666.612500033807,True,False
17,3,1269.1207555999863,star,"(-480.0, 270.0)",0,4595.640299958177,1682.9223000095226,True,False
17,3,1269.1381470999913,star,"(-480.0, 270.0)",0,4613.03179996321,1700.3138000145555,True,False
17,3,1269.1536144000129,star,"(-480.0, 270.0)",0,4628.499099984765,1715.7811000361107,True,False
17,3,1269.170721100003,star,"(-480.0, 270.0)",0,4645.605799974874,1732.8878000262193,True,False
17,3,1269.187266700028,star,"(-480.0, 270.0)",0,4662.151399999857,1749.4334000512026,True,False
17,3,1269.2045286999783,star,"(-480.0, 270.0)",0,4679.4133999501355,1766.6954000014812,True,False
17,3,1269.220410800015,star,"(-480.0, 270.0)",0,4695.295499986969,1782.5775000383146,True,False
17,3,1269.2375537999906,star,"(-480.0, 270.0)",0,4712.438499962445,1799.720500013791,True,False
17,3,1269.9042176000075,cross,"(480.0, -270.0)",251.12989998888224,5379.102299979422,2466.384300030768,False,True
18,1,1277.4017443999765,circle,"(-480.0, -270.0)",250.04159996751696,429.4479999807663,429.4479999807663,False,True
18,2,1278.4351348999771,circle,"(-480.0, -270.0)",266.8632999993861,1462.8384999814443,1033.390500000678,True,False
18,2,1278.454384199984,circle,"(-480.0, -270.0)",0,1482.0877999882214,1052.639800007455,True,False
18,2,1278.4683931000181,circle,"(-480.0, -270.0)",0,1496.0967000224628,1066.6487000416964,True,False
18,2,1278.4843204999925,circle,"(-480.0, -270.0)",0,1512.0240999967791,1082.5761000160128,True,False
18,2,1278.5013516999898,circle,"(-480.0, -270.0)",0,1529.05529999407,1099.6073000133038,True,False
18,2,1278.5178787999903,circle,"(-480.0, -270.0)",0,1545.5823999946006,1116.1344000138342,True,False
18,2,1278.5352552999975,circle,"(-480.0, -270.0)",0,1562.9589000018314,1133.510900021065,True,False
18,2,1278.5511915999814,circle,"(-480.0, -270.0)",0,1578.895199985709,1149.4472000049427,True,False
18,2,1278.5684466999955,circle,"(-480.0, -270.0)",0,1596.150299999863,1166.7023000190966,True,False
18,2,1278.5845492000226,circle,"(-480.0, -270.0)",0,1612.2528000269085,1182.8048000461422,True,False
18,2,1278.6018305000034,circle,"(-480.0, -270.0)",0,1629.5341000077315,1200.0861000269651,True,False
18,2,1278.6178479000228,circle,"(-480.0, -270.0)",0,1645.551500027068,1216.1035000463016,True,False
18,2,1278.6353162000305,circle,"(-480.0, -270.0)",0,1663.0198000348173,1233.571800054051,True,False
18,2,1278.651476100029,circle,"(-480.0, -270.0)",0,1679.1797000332735,1249.7317000525072,True,False
18,2,1278.6683319000294,circle,"(-480.0, -270.0)",0,1696.0355000337586,1266.5875000529923,True,False
18,2,1278.6846508000162,circle,"(-480.0, -270.0)",0,1712.3544000205584,1282.906400039792,True,False
18,2,1278.70155659999,circle,"(-480.0, -270.0)",0,1729.2601999943145,1299.8122000135481,True,False
18,2,1278.7177910999744,circle,"(-480.0, -270.0)",0,1745.4946999787353,1316.046699997969,True,False
18,2,1278.7362543999916,circle,"(-480.0, -270.0)",0,1763.9579999959096,1334.5100000151433,True,False
18,2,1278.7523635000107,circle,"(-480.0, -270.0)",0,1780.0671000150032,1350.619100034237,True,False
18,2,1278.771948700014,circle,"(-480.0, -270.0)",0,1799.6523000183515,1370.2043000375852,True,False
18,2,1278.8060277000186,circle,"(-480.0, -270.0)",0,1833.7313000229187,1404.2833000421524,True,False
18,2,1278.8295974999783,circle,"(-480.0, -270.0)",0,1857.3010999825783,1427.853100001812,True,False
18,2,1278.8552307999926,circle,"(-480.0, -270.0)",0,1882.9343999968842,1453.4864000161178,True,False
18,2,1278.8711167000001,circle,"(-480.0, -270.0)",0,1898.820300004445,1469.3723000236787,True,False
18,2,1278.8846005999949,circle,"(-480.0, -270.0)",0,1912.3041999991983,1482.856200018432,True,False
18,2,1278.9013497999986,circle,"(-480.0, -270.0)",0,1929.0534000028856,1499.6054000221193,True,False
18,2,1278.9174562999979,circle,"(-480.0, -270.0)",0,1945.1599000021815,1515.7119000214152,True,False
18,2,1278.9345705999876,circle,"(-480.0, -270.0)",0,1962.2741999919526,1532.8262000111863,True,False
18,2,1278.9508638000116,circle,"(-480.0, -270.0)",0,1978.5674000158906,1549.1194000351243,True,False
18,2,1278.968722700025,circle,"(-480.0, -270.0)",0,1996.4263000292704,1566.978300048504,True,False
18,2,1278.9841990999994,circle,"(-480.0, -270.0)",0,2011.9027000037022,1582.4547000229359,True,False
18,2,1279.0010602999828,circle,"(-480.0, -270.0)",0,2028.7638999870978,1599.3159000063315,True,False
18,2,1279.0183857000084,circle,"(-480.0, -270.0)",0,2046.0893000126816,1616.6413000319153,True,False
18,2,1279.034070099995,circle,"(-480.0, -270.0)",0,2061.7736999993213,1632.325700018555,True,False
18,2,1279.0506270999904,circle,"(-480.0, -270.0)",0,2078.3306999946944,1648.8827000139281,True,False
18,2,1279.0679093999788,circle,"(-480.0, -270.0)",0,2095.612999983132,1666.1650000023656,True,False
18,2,1279.085216699983,circle,"(-480.0, -270.0)",0,2112.9202999873087,1683.4723000065424,True,False
18,2,1279.1025182000012,circle,"(-480.0, -270.0)",0,2130.221800005529,1700.7738000247627,True,False
18,2,1279.117774399987,circle,"(-480.0, -270.0)",0,2145.4779999912716,1716.0300000105053,True,False
18,2,1279.1364240000257,circle,"(-480.0, -270.0)",0,2164.1276000300422,1734.679600049276,True,False
18,2,1279.1518164000008,circle,"(-480.0, -270.0)",0,2179.520000005141,1750.0720000243746,True,False
18,2,1279.1695396000287,circle,"(-480.0, -270.0)",0,2197.243200032972,1767.7952000522055,True,False
19,1,1284.7155367999803,star,"(-480.0, 270.0)",262.63519999338314,262.67649995861575,262.67649995861575,False,True
19,2,1289.1812913999893,t,"(480.0, 270.0)",260.9639000147581,4728.431099967565,4465.75460000895,False,True
19,3,1290.181747100025,t,"(480.0, 270.0)",997.4037000210956,5728.886800003238,1000.4557000356726,True,False
19,3,1290.201656499994,t,"(480.0, 270.0)",0,5748.796199972276,1020.3651000047103,True,False
19,3,1290.2149458000204,t,"(480.0, 270.0)",0,5762.085499998648,1033.6544000310823,True,False
19,3,1290.231849099975,t,"(480.0, 270.0)",0,5778.988799953368,1050.5576999858022,True,False
19,3,1290.2486323000048,t,"(480.0, 270.0)",0,5795.771999983117,1067.3409000155516,True,False
19,3,1290.265223000024,t,"(480.0, 270.0)",0,5812.362700002268,1083.9316000347026,True,False
19,3,1290.2819051999832,t,"(480.0, 270.0)",0,5829.0448999614455,1100.61379999388,True,False
19,3,1290.2984073000262,t,"(480.0, 270.0)",0,5845.547000004444,1117.1159000368789,True,False
19,3,1290.3150579999783,t,"(480.0, 270.0)",0,5862.197699956596,1133.7665999890305,True,False
19,3,1290.3305902000284,t,"(480.0, 270.0)",0,5877.7299000066705,1149.2988000391051,True,False
19,3,1290.3480557000148,t,"(480.0, 270.0)",0,5895.195399993099,1166.7643000255339,True,False
19,3,1290.3650469999993,t,"(480.0, 270.0)",0,5912.18669997761,1183.7556000100449,True,False
19,3,1290.3805211000144,t,"(480.0, 270.0)",0,5927.660799992736,1199.229700025171,True,False
19,3,1290.3989290000172,t,"(480.0, 270.0)",0,5946.0686999955215,1217.637600027956,True,False
19,3,1290.413742100005,t,"(480.0, 270.0)",0,5960.881799983326,1232.450700015761,True,False
19,3,1290.4325515999808,t,"(480.0, 270.0)",0,5979.691299959086,1251.2601999915205,True,False
19,3,1290.4480827000225,t,"(480.0, 270.0)",0,5995.222400000785,1266.7913000332192,True,False
19,3,1290.4656318000052,t,"(480.0, 270.0)",0,6012.771499983501,1284.3404000159353,True,False
19,3,1290.482054800028,t,"(480.0, 270.0)",0,6029.19450000627,1300.7634000387043,True,False
19,3,1290.4986912999884,t,"(480.0, 270.0)",0,6045.830999966711,1317.3998999991454,True,False
19,3,1290.5145747999777,t,"(480.0, 270.0)",0,6061.714499955997,1333.2833999884315,True,False
19,3,1290.53171499999,t,"(480.0, 270.0)",0,6078.85469996836,1350.423600000795,True,False
19,3,1290.547317699995,t,"(480.0, 270.0)",0,6094.45739997318,1366.0263000056148,True,False
19,3,1290.5674027000205,t,"(480.0, 270.0)",0,6114.542399998754,1386.1113000311889,True,False
19,3,1290.5815061000176,t,"(480.0, 270.0)",0,6128.645799995866,1400.2147000283003,True,False
19,3,1290.598517299979,t,"(480.0, 270.0)",0,6145.656999957282,1417.2258999897167,True,False
19,3,1290.6139694000012,t,"(480.0, 270.0)",0,6161.109099979512,1432.678000011947,True,False
19,3,1290.632379800023,t,"(480.0, 270.0)",0,6179.519500001334,1451.0884000337683,True,False
19,3,1290.6479054000229,t,"(480.0, 270.0)",0,6195.045100001153,1466.6140000335872,True,False
19,3,1290.6653310999973,t,"(480.0, 270.0)",0,6212.470799975563,1484.0397000079975,True,False
19,3,1290.6824380999897,t,"(480.0, 270.0)",0,6229.577799967956,1501.1467000003904,True,False
19,3,1290.6987543000141,t,"(480.0, 270.0)",0,6245.893999992404,1517.4629000248387,True,False
19,3,1290.7146044999827,t,"(480.0, 270.0)",0,6261.744199960958,1533.3130999933928,True,False
19,3,1290.732168800023,t,"(480.0, 270.0)",0,6279.308500001207,1550.8774000336416,True,False
19,3,1290.7475676999893,t,"(480.0, 270.0)",0,6294.707399967592,1566.2763000000268,True,False
19,3,1290.7650752000045,t,"(480.0, 270.0)",0,6312.214899982791,1583.783800015226,True,False
19,3,1290.78206160001,t,"(480.0, 270.0)",0,6329.201299988199,1600.7702000206336,True,False
19,3,1290.7988582000253,t,"(480.0, 270.0)",0,6345.997900003567,1617.566800036002,True,False
19,3,1290.8137290999875,t,"(480.0, 270.0)",0,6360.868799965829,1632.4376999982633,True,False
19,3,1290.8320275000297,t,"(480.0, 270.0)",0,6379.167200007942,1650.7361000403762,True,False
19,3,1290.847576799977,t,"(480.0, 270.0)",0,6394.716499955393,1666.285399987828,True,False
19,3,1290.8738848000066,t,"(480.0, 270.0)",0,6421.024499984924,1692.5934000173584,True,False
19,3,1290.8873058999889,t,"(480.0, 270.0)",0,6434.445599967148,1706.0144999995828,True,False
19,3,1290.900193599984,t,"(480.0, 270.0)",0,6447.333299962338,1718.9021999947727,True,False
19,3,1290.915087500005,t,"(480.0, 270.0)",0,6462.227199983317,1733.796100015752,True,False
19,3,1290.9317966999952,t,"(480.0, 270.0)",0,6478.936399973463,1750.5053000058979,True,False
19,3,1290.9481989999767,t,"(480.0, 270.0)",0,6495.338699955028,1766.9075999874622,True,False
19,3,1290.9656801000237,t,"(480.0, 270.0)",0,6512.819800002035,1784.3887000344694,True,False
19,3,1292.1644834000035,cross,"(480.0, -270.0)",266.60949998768046,7711.623099981807,2983.192000014242,False,True
19,4,1294.9295161999762,t,"(480.0, 270.0)",250.5718999891542,10476.655899954494,2765.032799972687,False,True
20,1,1299.710826900031,star,"(-480.0, 270.0)",250.96170004690066,945.9177000098862,945.9177000098862,False,True
20,2,1300.7272048000013,star,"(-480.0, 270.0)",1012.8114999970421,1962.2955999802798,1016.3778999703936,True,False
20,2,1300.7475753999897,star,"(-480.0, 270.0)",0,1982.666199968662,1036.748499958776,True,False
20,2,1300.7603938999819,star,"(-480.0, 270.0)",0,1995.484699960798,1049.5669999509118,True,False
20,2,1300.778103700024,star,"(-480.0, 270.0)",0,2013.19450000301,1067.2767999931239,True,False
20,2,1300.7933420999907,star,"(-480.0, 270.0)",0,2028.43289996963,1082.5151999597438,True,False
20,2,1300.810630700027,star,"(-480.0, 270.0)",0,2045.7215000060387,1099.8037999961525,True,False
20,2,1300.8270608999883,star,"(-480.0, 270.0)",0,2062.1516999672167,1116.2339999573305,True,False
20,2,1300.8440201000194,star,"(-480.0, 270.0)",0,2079.1108999983408,1133.1931999884546,True,False
20,2,1300.8600837999838,star,"(-480.0, 270.0)",0,2095.1745999627747,1149.2568999528885,True,False
20,2,1300.8773395000026,star,"(-480.0, 270.0)",0,2112.4302999814972,1166.512599971611,True,False
20,2,1300.8933354999754,star,"(-480.0, 270.0)",0,2128.426299954299,1182.5085999444127,True,False
20,2,1300.9111061000149,star,"(-480.0, 270.0)",0,2146.196899993811,1200.2791999839246,True,False
20,2,1300.9269632999785,star,"(-480.0, 270.0)",0,2162.0540999574587,1216.1363999475725,True,False
20,2,1300.9441671000095,star,"(-480.0, 270.0)",0,2179.2578999884427,1233.3401999785565,True,False
20,2,1300.959245999984,star,"(-480.0, 270.0)",0,2194.3367999629118,1248.4190999530256,True,False
20,2,1300.9774148000288,star,"(-480.0, 270.0)",0,2212.5056000077166,1266.5878999978304,True,False
20,2,1300.99330859998,star,"(-480.0, 270.0)",0,2228.3993999590166,1282.4816999491304,True,False
20,2,1301.010940600012,star,"(-480.0, 270.0)",0,2246.0313999908976,1300.1136999810115,True,False
20,2,1301.0266142999753,star,"(-480.0, 270.0)",0,2261.70509995427,1315.7873999443837,True,False
20,2,1301.0440132999793,star,"(-480.0, 270.0)",0,2279.1040999582037,1333.1863999483176,True,False
20,2,1301.0596688999794,star,"(-480.0, 270.0)",0,2294.7596999583766,1348.8419999484904,True,False
20,2,1301.0780679999734,star,"(-480.0, 270.0)",0,2313.1587999523617,1367.2410999424756,True,False
20,2,1301.09324810002,star,"(-480.0, 270.0)",0,2328.3388999989256,1382.4211999890395,True,False
20,2,1301.1105763000087,star,"(-480.0, 270.0)",0,2345.6670999876224,1399.7493999777362,True,False
20,2,1301.1267061000108,star,"(-480.0, 270.0)",0,2361.796899989713,1415.8791999798268,True,False
20,2,1301.1442029000027,star,"(-480.0, 270.0)",0,2379.2936999816447,1433.3759999717586,True,False
20,2,1301.159632899973,star,"(-480.0, 270.0)",0,2394.72369995201,1448.805999942124,True,False
20,2,1301.1805262999842,star,"(-480.0, 270.0)",0,2415.6170999631286,1469.6993999532424,True,False
20,2,1301.1936093000113,star,"(-480.0, 270.0)",0,2428.7000999902375,1482.7823999803513,True,False
20,2,1301.2106222999864,star,"(-480.0, 270.0)",0,2445.71309996536,1499.7953999554738,True,False
20,2,1301.2259453000152,star,"(-480.0, 270.0)",0,2461.0360999940895,1515.1183999842033,True,False
20,2,1301.2440034999745,star,"(-480.0, 270.0)",0,2479.094299953431,1533.1765999435447,True,False
20,2,1301.259509800002,star,"(-480.0, 270.0)",0,2494.600599980913,1548.682899971027,True,False
20,2,1301.2770834999974,star,"(-480.0, 270.0)",0,2512.174299976323,1566.2565999664366,True,False
20,2,1301.2934548999765,star,"(-480.0, 270.0)",0,2528.54569995543,1582.6279999455437,True,False
20,2,1301.3105020999792,star,"(-480.0, 270.0)",0,2545.5928999581374,1599.6751999482512,True,False
20,2,1301.326508499973,star,"(-480.0, 270.0)",0,2561.599299951922,1615.681599942036,True,False
20,2,1301.3440503000165,star,"(-480.0, 270.0)",0,2579.141099995468,1633.2233999855816,True,False
20,2,1301.359782500018,star,"(-480.0, 270.0)",0,2594.8732999968342,1648.955599986948,True,False
20,2,1301.3772417000146,star,"(-480.0, 270.0)",0,2612.3324999934994,1666.4147999836132,True,False
20,2,1301.3928866999922,star,"(-480.0, 270.0)",0,2627.9774999711663,1682.05979996128,True,False
20,2,1301.4107659999863,star,"(-480.0, 270.0)",0,2645.8567999652587,1699.9390999553725,True,False
20,2,1301.4256243000273,star,"(-480.0, 270.0)",0,2660.7151000062004,1714.7973999963142,True,False
20,2,1301.4438476000214,star,"(-480.0, 270.0)",0,2678.938400000334,1733.0206999904476,True,False
20,2,1301.459611499973,star,"(-480.0, 270.0)",0,2694.7022999520414,1748.7845999421552,True,False
20,2,1301.4769811999868,star,"(-480.0, 270.0)",0,2712.0719999657013,1766.154299955815,True,False
20,2,1303.6426924000261,circle,"(-480.0, -270.0)",250.41910004802048,4877.783200005069,3931.865499995183,False,True
21,1,1312.0576186000253,star,"(-480.0, 270.0)",265.33379999455065,1362.7030000207014,1362.7030000207014,False,True
21,2,1312.4586846000166,circle,"(-480.0, -270.0)",266.79750002222136,1763.769000011962,401.06599999126047,True,False
21,2,1312.4780473000137,circle,"(-480.0, -270.0)",0,1783.1317000091076,420.42869998840615,True,False
21,2,1312.4915190999745,circle,"(-480.0, -270.0)",0,1796.6034999699332,433.90049994923174,True,False
21,2,1312.508610800025,circle,"(-480.0, -270.0)",0,1813.6952000204474,450.99219999974594,True,False
21,2,1312.5249526000116,circle,"(-480.0, -270.0)",0,1830.037000006996,467.33399998629466,True,False
21,2,1312.5420108999824,circle,"(-480.0, -270.0)",0,1847.0952999778092,484.39229995710775,True,False
21,2,1312.5578099000268,circle,"(-480.0, -270.0)",0,1862.8943000221625,500.19130000146106,True,False
21,2,1312.5751896000002,circle,"(-480.0, -270.0)",0,1880.273999995552,517.5709999748506,True,False
21,2,1312.5905529999873,circle,"(-480.0, -270.0)",0,1895.637399982661,532.9343999619596,True,False
21,2,1312.607919299975,circle,"(-480.0, -270.0)",0,1913.0036999704316,550.3006999497302,True,False
21,2,1312.6253715999774,circle,"(-480.0, -270.0)",0,1930.4559999727644,567.752999952063,True,False
21,2,1312.6425948999822,circle,"(-480.0, -270.0)",0,1947.679299977608,584.9762999569066,True,False
21,2,1312.6596838000114,circle,"(-480.0, -270.0)",0,1964.7682000068016,602.0651999861002,True,False
21,2,1312.6784911000286,circle,"(-480.0, -270.0)",0,1983.575500024017,620.8725000033155,True,False
21,2,1312.6933707999997,circle,"(-480.0, -270.0)",0,1998.4551999950781,635.7521999743767,True,False
21,2,1312.7099809999927,circle,"(-480.0, -270.0)",0,2015.0653999880888,652.3623999673873,True,False
21,2,1312.7263657000149,circle,"(-480.0, -270.0)",0,2031.450100010261,668.7470999895595,True,False
21,2,1312.742831600015,circle,"(-480.0, -270.0)",0,2047.9160000104457,685.2129999897443,True,False
21,2,1312.7590277999989,circle,"(-480.0, -270.0)",0,2064.1121999942698,701.4091999735683,True,False
21,2,1312.7761517000035,circle,"(-480.0, -270.0)",0,2081.2360999989323,718.5330999782309,True,False
21,2,1312.7924837999744,circle,"(-480.0, -270.0)",0,2097.568199969828,734.8651999491267,True,False
21,2,1312.8088267000276,circle,"(-480.0, -270.0)",0,2113.9111000229605,751.208100002259,True,False
21,2,1312.8240864999825,circle,"(-480.0, -270.0)",0,2129.1708999779075,766.4678999572061,True,False
21,2,1312.841945399996,circle,"(-480.0, -270.0)",0,2147.0297999912873,784.3267999705859,True,False
21,2,1312.858263299975,circle,"(-480.0, -270.0)",0,2163.3476999704726,800.6446999497712,True,False
21,2,1312.8756768999738,circle,"(-480.0, -270.0)",0,2180.761299969163,818.0582999484614,True,False
21,2,1312.8918334000045,circle,"(-480.0, -270.0)",0,2196.9177999999374,834.214799979236,True,False
21,2,1312.9087368000182,circle,"(-480.0, -270.0)",0,2213.8212000136264,851.1181999929249,True,False
21,2,1312.9245611000224,circle,"(-480.0, -270.0)",0,2229.6455000177957,866.9424999970943,True,False
21,2,1312.9421460999874,circle,"(-480.0, -270.0)",0,2247.230499982834,884.5274999621324,True,False
21,2,1312.9580853999942,circle,"(-480.0, -270.0)",0,2263.169799989555,900.4667999688536,True,False
21,2,1312.9755776000093,circle,"(-480.0, -270.0)",0,2280.662000004668,917.9589999839664,True,False
21,2,1312.9918752000085,circle,"(-480.0, -270.0)",0,2296.959600003902,934.2565999832004,True,False
21,2,1313.007674099994,circle,"(-480.0, -270.0)",0,2312.758499989286,950.0554999685846,True,False
21,2,1313.022807899979,circle,"(-480.0, -270.0)",0,2327.892299974337,965.1892999536358,True,False
21,2,1313.0417088000104,circle,"(-480.0, -270.0)",0,2346.793200005777,984.0901999850757,True,False
21,2,1313.0582481999882,circle,"(-480.0, -270.0)",0,2363.3325999835506,1000.6295999628492,True,False
21,2,1313.0601595999906,star,"(-480.0, 270.0)",379.2766999686137,2365.243999985978,1002.5409999652766,True,False
21,2,1313.0794161999947,star,"(-480.0, 270.0)",0,2384.500599990133,1021.7975999694318,True,False
21,2,1313.0923236000235,star,"(-480.0, 270.0)",0,2397.4080000189133,1034.7049999982119,True,False
21,2,1313.1088633000036,star,"(-480.0, 270.0)",0,2413.947699998971,1051.2446999782696,True,False
21,2,1313.1241619000211,star,"(-480.0, 270.0)",0,2429.24630001653,1066.5432999958284,True,False
21,2,1313.1421187000233,star,"(-480.0, 270.0)",0,2447.203100018669,1084.5000999979675,True,False
21,2,1313.1578738000244,star,"(-480.0, 270.0)",0,2462.9582000197843,1100.2551999990828,True,False
21,2,1313.175158100028,star,"(-480.0, 270.0)",0,2480.2425000234507,1117.5395000027493,True,False
21,2,1313.1901470000157,star,"(-480.0, 270.0)",0,2495.2314000111073,1132.528399990406,True,False
21,2,1313.208344099985,star,"(-480.0, 270.0)",0,2513.428499980364,1150.7254999596626,True,False
21,2,1313.2249717999948,star,"(-480.0, 270.0)",0,2530.056199990213,1167.3531999695115,True,False
21,2,1313.2411966000218,star,"(-480.0, 270.0)",0,2546.2810000171885,1183.577999996487,True,False
21,2,1313.2576540000155,star,"(-480.0, 270.0)",0,2562.7384000108577,1200.0353999901563,True,False
21,2,1313.2753523000283,star,"(-480.0, 270.0)",0,2580.4367000237107,1217.7337000030093,True,False
21,2,1313.2914603999816,star,"(-480.0, 270.0)",0,2596.544799976982,1233.8417999562807,True,False
21,2,1313.3131221000222,star,"(-480.0, 270.0)",0,2618.20650001755,1255.5034999968484,True,False
21,2,1313.3265296000172,star,"(-480.0, 270.0)",0,2631.6140000126325,1268.910999991931,True,False
21,2,1313.3422954999842,star,"(-480.0, 270.0)",0,2647.379899979569,1284.6768999588676,True,False
21,2,1313.3581284999964,star,"(-480.0, 270.0)",0,2663.212899991777,1300.5098999710754,True,False
21,2,1313.374384899973,star,"(-480.0, 270.0)",0,2679.469299968332,1316.7662999476306,True,False
21,2,1313.3908071999904,star,"(-480.0, 270.0)",0,2695.891599985771,1333.1885999650694,True,False
21,2,1313.4072651999886,star,"(-480.0, 270.0)",0,2712.349599984009,1349.6465999633074,True,False
21,2,1313.424575300014,star,"(-480.0, 270.0)",0,2729.659700009506,1366.9566999888048,True,False
21,2,1313.4421329000033,star,"(-480.0, 270.0)",0,2747.217299998738,1384.5142999780364,True,False
21,2,1313.458509500022,star,"(-480.0, 270.0)",0,2763.5939000174403,1400.8908999967389,True,False
21,2,1313.475837200007,star,"(-480.0, 270.0)",0,2780.92160000233,1418.2185999816284,True,False
21,2,1313.491595599975,star,"(-480.0, 270.0)",0,2796.6799999703653,1433.9769999496639,True,False
21,2,1313.5089716999792,star,"(-480.0, 270.0)",0,2814.0560999745503,1451.3530999538489,True,False
21,2,1313.5252744000172,star,"(-480.0, 270.0)",0,2830.3588000126183,1467.6557999919169,True,False
21,2,1313.5415084999986,star,"(-480.0, 270.0)",0,2846.5928999939933,1483.889899973292,True,False
21,2,1313.557178099989,star,"(-480.0, 270.0)",0,2862.262499984354,1499.5594999636523,True,False
21,2,1313.5751833000104,star,"(-480.0, 270.0)",0,2880.2677000057884,1517.564699985087,True,False
21,2,1313.5904677999788,star,"(-480.0, 270.0)",0,2895.5521999741904,1532.849199953489,True,False
21,2,1313.608605800022,star,"(-480.0, 270.0)",0,2913.6902000172995,1550.987199996598,True,False
21,2,1313.624169000017,star,"(-480.0, 270.0)",0,2929.253400012385,1566.5503999916837,True,False
21,2,1313.6416791999945,star,"(-480.0, 270.0)",0,2946.7635999899358,1584.0605999692343,True,False
21,2,1313.657454899978,star,"(-480.0, 270.0)",0,2962.5392999732867,1599.8362999525853,True,False
21,2,1313.674256999977,star,"(-480.0, 270.0)",0,2979.341399972327,1616.6383999516256,True,False
21,2,1313.6900610000012,star,"(-480.0, 270.0)",0,2995.145399996545,1632.4423999758437,True,False
21,2,1313.7081917999894,star,"(-480.0, 270.0)",0,3013.27619998483,1650.5731999641284,True,False
21,2,1313.7246929000248,star,"(-480.0, 270.0)",0,3029.777300020214,1667.0742999995127,True,False
21,2,1313.7420127000078,star,"(-480.0, 270.0)",0,3047.097100003157,1684.3940999824554,True,False
21,2,1313.7577683000127,star,"(-480.0, 270.0)",0,3062.8527000080794,1700.149699987378,True,False
21,2,1313.7748485999764,star,"(-480.0, 270.0)",0,3079.9329999717884,1717.229999951087,True,False
21,2,1313.7903394000023,star,"(-480.0, 270.0)",0,3095.4237999976613,1732.7207999769598,True,False
21,2,1313.8077361999894,star,"(-480.0, 270.0)",0,3112.8205999848433,1750.1175999641418,True,False
21,2,1313.8232450999785,star,"(-480.0, 270.0)",0,3128.3294999739155,1765.626499953214,True,False
21,2,1313.8417795000132,star,"(-480.0, 270.0)",0,3146.8639000086114,1784.16089998791,True,False
21,2,1314.6738946000114,circle,"(-480.0, -270.0)",250.55300001986325,3978.9790000068024,2616.275999986101,False,True
21,3,1315.6744218000094,circle,"(-480.0, -270.0)",997.4386999965645,4979.506200004835,1000.5271999980323,True,False
21,3,1315.6936210999847,circle,"(-480.0, -270.0)",0,4998.705499980133,1019.7264999733306,True,False
21,3,1315.7082530999905,circle,"(-480.0, -270.0)",0,5013.337499985937,1034.3584999791346,True,False
21,3,1315.7232984000002,circle,"(-480.0, -270.0)",0,5028.382799995597,1049.403799988795,True,False
21,3,1315.7404758000048,circle,"(-480.0, -270.0)",0,5045.560200000182,1066.5811999933794,True,False
21,3,1315.7579513000092,circle,"(-480.0, -270.0)",0,5063.035700004548,1084.0566999977455,True,False
21,3,1315.7750181999872,circle,"(-480.0, -270.0)",0,5080.102599982638,1101.1235999758355,True,False
21,3,1315.7963121000212,circle,"(-480.0, -270.0)",0,5101.396500016563,1122.4175000097603,True,False
21,3,1315.81139789999,circle,"(-480.0, -270.0)",0,5116.482299985364,1137.5032999785617,True,False
21,3,1315.8252617000253,circle,"(-480.0, -270.0)",0,5130.346100020688,1151.3671000138856,True,False
21,3,1315.8417040000204,circle,"(-480.0, -270.0)",0,5146.788400015794,1167.8094000089914,True,False
21,3,1315.857139699976,circle,"(-480.0, -270.0)",0,5162.224099971354,1183.2450999645516,True,False
21,3,1315.8744688000297,circle,"(-480.0, -270.0)",0,5179.553200025111,1200.574200018309,True,False
21,3,1315.8907000999898,circle,"(-480.0, -270.0)",0,5195.784499985166,1216.8054999783635,True,False
21,3,1315.908062900009,circle,"(-480.0, -270.0)",0,5213.147300004493,1234.168299997691,True,False
21,3,1315.9233946999884,circle,"(-480.0, -270.0)",0,5228.479099983815,1249.5000999770127,True,False
21,3,1315.940663699992,circle,"(-480.0, -270.0)",0,5245.748099987395,1266.7690999805927,True,False
21,3,1315.9565921999747,circle,"(-480.0, -270.0)",0,5261.676599970087,1282.697599963285,True,False
21,3,1315.973317899974,circle,"(-480.0, -270.0)",0,5278.402299969457,1299.4232999626547,True,False
21,3,1315.9901613999973,circle,"(-480.0, -270.0)",0,5295.245799992699,1316.2667999858968,True,False
21,3,1316.0069220000296,circle,"(-480.0, -270.0)",0,5312.006400024984,1333.0274000181817,True,False
21,3,1316.0233479000162,circle,"(-480.0, -270.0)",0,5328.432300011627,1349.453300004825,True,False
21,3,1316.0405709000188,circle,"(-480.0, -270.0)",0,5345.655300014187,1366.6763000073843,True,False
21,3,1316.0576516999863,circle,"(-480.0, -270.0)",0,5362.736099981703,1383.7570999749005,True,False
21,3,1316.0741568999947,circle,"(-480.0, -270.0)",0,5379.241299990099,1400.2622999832965,True,False
21,3,1316.0900343999965,circle,"(-480.0, -270.0)",0,5395.118799991906,1416.1397999851033,True,False
21,3,1316.1077409000136,circle,"(-480.0, -270.0)",0,5412.82530000899,1433.8463000021875,True,False
21,3,1316.1231898000115,circle,"(-480.0, -270.0)",0,5428.274200006854,1449.2952000000514,True,False
21,3,1316.1403898000135,circle,"(-480.0, -270.0)",0,5445.474200008903,1466.4952000021003,True,False
21,3,1316.1568809999735,circle,"(-480.0, -270.0)",0,5461.9653999689035,1482.9863999621011,True,False
21,3,1316.1746396999806,circle,"(-480.0, -270.0)",0,5479.724099976011,1500.7450999692082,True,False
21,3,1316.1895842999802,circle,"(-480.0, -270.0)",0,5494.668699975591,1515.6896999687888,True,False
21,3,1316.2130206000293,circle,"(-480.0, -270.0)",0,5518.105000024661,1539.126000017859,True,False
21,3,1316.2415330000222,circle,"(-480.0, -270.0)",0,5546.617400017567,1567.6384000107646,True,False
21,3,1316.256471999979,circle,"(-480.0, -270.0)",0,5561.556399974506,1582.577399967704,True,False
21,3,1316.273980900005,circle,"(-480.0, -270.0)",0,5579.065300000366,1600.0862999935634,True,False
21,3,1316.2896797999856,circle,"(-480.0, -270.0)",0,5594.764199981,1615.785199974198,True,False
21,3,1316.30834649998,circle,"(-480.0, -270.0)",0,5613.430899975356,1634.4518999685533,True,False
21,3,1316.3232133000274,circle,"(-480.0, -270.0)",0,5628.297700022813,1649.3187000160106,True,False
21,3,1316.3406092000077,circle,"(-480.0, -270.0)",0,5645.693600003142,1666.7145999963395,True,False
21,3,1316.3561129000154,circle,"(-480.0, -270.0)",0,5661.197300010826,1682.218300004024,True,False
21,3,1316.37377190002,circle,"(-480.0, -270.0)",0,5678.856300015468,1699.8773000086658,True,False
21,3,1316.390217099979,circle,"(-480.0, -270.0)",0,5695.301499974448,1716.3224999676459,True,False
21,3,1316.4082795000286,circle,"(-480.0, -270.0)",0,5713.363900023978,1734.3849000171758,True,False
21,3,1316.4236224999768,circle,"(-480.0, -270.0)",0,5728.706899972167,1749.7278999653645,True,False
21,3,1316.4407739000162,circle,"(-480.0, -270.0)",0,5745.858300011605,1766.8793000048026,True,False
21,3,1316.4568053000257,circle,"(-480.0, -270.0)",0,5761.889700021129,1782.9107000143267,True,False
21,3,1316.4736773999757,circle,"(-480.0, -270.0)",0,5778.761799971107,1799.782799964305,True,False
21,3,1317.006368900009,star,"(-480.0, 270.0)",266.4140000124462,6311.453300004359,2332.474299997557,False,True
21,4,1321.3701511999825,cross,"(480.0, -270.0)",250.2043999847956,10675.235599977896,4363.782299973536,False,True
