trial_num,selection_num,timestamp,shape,position,fixation_duration_ms,rt_from_trial_start_ms,rt_from_previous_selection_ms,queued_selection,was_executed
13,1,174.54036290000658,star,"(-480.0, 270.0)",267.0521000109147,1964.3557000090368,1964.3557000090368,False,True
13,2,174.8070735000074,star,"(-480.0, 270.0)",263.1194000132382,2231.066300009843,266.71060000080615,True,False
13,2,174.82583310001064,star,"(-480.0, 270.0)",0,2249.825900013093,285.4702000040561,True,False
13,2,174.840569699998,star,"(-480.0, 270.0)",0,2264.5625000004657,300.20679999142885,True,False
13,2,174.85703700000886,star,"(-480.0, 270.0)",0,2281.0298000113107,316.6741000022739,True,False
13,2,174.87403090001317,star,"(-480.0, 270.0)",0,2298.0237000156194,333.6680000065826,True,False
13,2,174.89009860000806,star,"(-480.0, 270.0)",0,2314.0914000105113,349.73570000147447,True,False
13,2,174.90668760001427,star,"(-480.0, 270.0)",0,2330.6804000167176,366.3247000076808,True,False
13,2,174.92317759999423,star,"(-480.0, 270.0)",0,2347.170399996685,382.81469998764805,True,False
13,2,174.94023899998865,star,"(-480.0, 270.0)",0,2364.231799991103,399.8760999820661,True,False
13,2,174.95698610000545,star,"(-480.0, 270.0)",0,2380.9789000079036,416.62319999886677,True,False
13,2,174.9735040999949,star,"(-480.0, 270.0)",0,2397.49689999735,433.141199988313,True,False
13,2,174.99026399999275,star,"(-480.0, 270.0)",0,2414.2567999952007,449.9010999861639,True,False
13,2,175.00713040001574,star,"(-480.0, 270.0)",0,2431.1232000181917,466.7675000091549,True,False
13,2,175.02367160000722,star,"(-480.0, 270.0)",0,2447.664400009671,483.3087000006344,True,False
13,2,175.04012089999742,star,"(-480.0, 270.0)",0,2464.1136999998707,499.7579999908339,True,False
13,2,175.05683300000965,star,"(-480.0, 270.0)",0,2480.8258000120986,516.4701000030618,True,False
13,2,175.07347810000647,star,"(-480.0, 270.0)",0,2497.4709000089206,533.1151999998838,True,False
13,2,175.0903540000145,star,"(-480.0, 270.0)",0,2514.346800016938,549.991100007901,True,False
13,2,175.10685820001527,star,"(-480.0, 270.0)",0,2530.8510000177193,566.4953000086825,True,False
13,2,175.12353989999974,star,"(-480.0, 270.0)",0,2547.5327000021935,583.1769999931566,True,False
13,2,175.14046210001106,star,"(-480.0, 270.0)",0,2564.4549000135157,600.0992000044789,True,False
13,2,175.15661470001214,star,"(-480.0, 270.0)",0,2580.607500014594,616.251800005557,True,False
13,2,175.17294580000453,star,"(-480.0, 270.0)",0,2596.938600006979,632.5828999979421,True,False
13,2,175.19038159999764,star,"(-480.0, 270.0)",0,2614.374400000088,650.0186999910511,True,False
13,2,175.2068503999908,star,"(-480.0, 270.0)",0,2630.843199993251,666.4874999842141,True,False
13,2,175.2232997000101,star,"(-480.0, 270.0)",0,2647.2925000125542,682.9368000035174,True,False
13,2,175.24014430001262,star,"(-480.0, 270.0)",0,2664.1371000150684,699.7814000060316,True,False
13,2,175.25674099999014,star,"(-480.0, 270.0)",0,2680.733799992595,716.3780999835581,True,False
13,2,175.2783630999911,star,"(-480.0, 270.0)",0,2702.355899993563,738.0001999845263,True,False
13,2,175.29050790000474,star,"(-480.0, 270.0)",0,2714.500700007193,750.144999998156,True,False
13,2,175.30661150001106,star,"(-480.0, 270.0)",0,2730.6043000135105,766.2486000044737,True,False
13,2,175.32364889999735,star,"(-480.0, 270.0)",0,2747.6416999998037,783.2859999907669,True,False
13,2,175.3404004999902,star,"(-480.0, 270.0)",0,2764.393299992662,800.0375999836251,True,False
13,2,175.35689669998828,star,"(-480.0, 270.0)",0,2780.889499990735,816.5337999816984,True,False
13,2,175.3736768999952,star,"(-480.0, 270.0)",0,2797.669699997641,833.3139999886043,True,False
13,2,175.39029650000157,star,"(-480.0, 270.0)",0,2814.2893000040203,849.9335999949835,True,False
13,2,175.40679569999338,star,"(-480.0, 270.0)",0,2830.7884999958333,866.4327999867965,True,False
13,2,175.42332530001295,star,"(-480.0, 270.0)",0,2847.3181000154,882.9624000063632,True,False
13,2,175.44047599998885,star,"(-480.0, 270.0)",0,2864.4687999913003,900.1130999822635,True,False
13,2,175.45681020000484,star,"(-480.0, 270.0)",0,2880.8030000072904,916.4472999982536,True,False
13,2,175.4733581999899,star,"(-480.0, 270.0)",0,2897.350999992341,932.995299983304,True,False
13,2,175.49004740000237,star,"(-480.0, 270.0)",0,2914.04020000482,949.684499995783,True,False
13,2,175.50667810000596,star,"(-480.0, 270.0)",0,2930.6709000084084,966.3151999993715,True,False
13,2,175.52318660001038,star,"(-480.0, 270.0)",0,2947.1794000128284,982.8237000037916,True,False
13,2,175.54026810001233,star,"(-480.0, 270.0)",0,2964.2609000147786,999.9052000057418,True,False
13,2,175.55709630000638,star,"(-480.0, 270.0)",0,2981.0891000088304,1016.7333999997936,True,False
13,2,175.57361130000209,star,"(-480.0, 270.0)",0,2997.604100004537,1033.2483999955002,True,False
13,2,175.59036209998885,star,"(-480.0, 270.0)",0,3014.3548999913037,1049.9991999822669,True,False
13,2,175.60679930000333,star,"(-480.0, 270.0)",0,3030.792100005783,1066.4363999967463,True,False
13,2,175.62359920001472,star,"(-480.0, 270.0)",0,3047.5920000171755,1083.2363000081386,True,False
13,2,175.64021330000833,star,"(-480.0, 270.0)",0,3064.2061000107788,1099.850400001742,True,False
13,2,175.65678310001385,star,"(-480.0, 270.0)",0,3080.775900016306,1116.4202000072692,True,False
13,2,175.67394320000312,star,"(-480.0, 270.0)",0,3097.936000005575,1133.580299996538,True,False
13,2,175.69039870001143,star,"(-480.0, 270.0)",0,3114.3915000138804,1150.0358000048436,True,False
13,2,175.7066640999983,star,"(-480.0, 270.0)",0,3130.6569000007585,1166.3011999917217,True,False
13,2,175.72298550000414,star,"(-480.0, 270.0)",0,3146.9783000065945,1182.6225999975577,True,False
13,2,175.73988050001208,star,"(-480.0, 270.0)",0,3163.8733000145294,1199.5176000054926,True,False
13,2,175.7563739999896,star,"(-480.0, 270.0)",0,3180.3667999920435,1216.0110999830067,True,False
13,2,175.77326730001369,star,"(-480.0, 270.0)",0,3197.2601000161376,1232.9044000071008,True,False
13,2,175.7900779999909,star,"(-480.0, 270.0)",0,3214.070799993351,1249.7150999843143,True,False
13,2,175.80654600000707,star,"(-480.0, 270.0)",0,3230.5388000095263,1266.1831000004895,True,False
13,2,175.82301459999871,star,"(-480.0, 270.0)",0,3247.0074000011664,1282.6516999921296,True,False
13,2,175.84017969999695,star,"(-480.0, 270.0)",0,3264.172499999404,1299.8167999903671,True,False
13,2,175.856910100003,star,"(-480.0, 270.0)",0,3280.902900005458,1316.547199996421,True,False
13,2,175.87333989999024,star,"(-480.0, 270.0)",0,3297.332699992694,1332.9769999836572,True,False
13,2,175.89027939998778,star,"(-480.0, 270.0)",0,3314.272199990228,1349.916499981191,True,False
13,2,175.90676849999,star,"(-480.0, 270.0)",0,3330.761299992446,1366.405599983409,True,False
13,2,175.9232530000154,star,"(-480.0, 270.0)",0,3347.245800017845,1382.890100008808,True,False
13,2,175.94000090000918,star,"(-480.0, 270.0)",0,3363.9937000116333,1399.6380000025965,True,False
13,2,175.9564970000065,star,"(-480.0, 270.0)",0,3380.489800008945,1416.1340999999084,True,False
13,2,175.9725960000069,star,"(-480.0, 270.0)",0,3396.58880000934,1432.2331000003032,True,False
13,2,175.98929190001218,star,"(-480.0, 270.0)",0,3413.2847000146285,1448.9290000055917,True,False
13,2,176.0063017999928,star,"(-480.0, 270.0)",0,3430.29459999525,1465.938899986213,True,False
13,2,176.0230736999947,star,"(-480.0, 270.0)",0,3447.066499997163,1482.7107999881264,True,False
13,2,176.0401913000096,star,"(-480.0, 270.0)",0,3464.184100012062,1499.8284000030253,True,False
13,2,176.0568118999945,star,"(-480.0, 270.0)",0,3480.804699996952,1516.4489999879152,True,False
13,2,176.07323589999578,star,"(-480.0, 270.0)",0,3497.2286999982316,1532.8729999891948,True,False
13,2,176.08988889999455,star,"(-480.0, 270.0)",0,3513.8816999970004,1549.5259999879636,True,False
13,2,176.10679670001264,star,"(-480.0, 270.0)",0,3530.7895000150893,1566.4338000060525,True,False
13,2,176.123410900007,star,"(-480.0, 270.0)",0,3547.403700009454,1583.0480000004172,True,False
13,2,176.14004230001592,star,"(-480.0, 270.0)",0,3564.0351000183728,1599.679400009336,True,False
13,2,176.1567425999965,star,"(-480.0, 270.0)",0,3580.7353999989573,1616.3796999899205,True,False
13,2,176.17325469999923,star,"(-480.0, 270.0)",0,3597.2475000016857,1632.8917999926489,True,False
13,2,176.19013649999397,star,"(-480.0, 270.0)",0,3614.1292999964207,1649.773599987384,True,False
13,2,176.2076495999936,star,"(-480.0, 270.0)",0,3631.6423999960534,1667.2866999870166,True,False
13,2,176.22309459999087,star,"(-480.0, 270.0)",0,3647.0873999933247,1682.7316999842878,True,False
13,2,176.2398511999927,star,"(-480.0, 270.0)",0,3663.8439999951515,1699.4882999861147,True,False
13,2,176.2568598999933,star,"(-480.0, 270.0)",0,3680.8526999957394,1716.4969999867026,True,False
13,2,176.2733286000148,star,"(-480.0, 270.0)",0,3697.3214000172447,1732.965700008208,True,False
13,2,176.2895315999922,star,"(-480.0, 270.0)",0,3713.5243999946397,1749.1686999856029,True,False
13,2,176.3066480999987,star,"(-480.0, 270.0)",0,3730.6409000011627,1766.2851999921259,True,False
13,2,176.32328330000746,star,"(-480.0, 270.0)",0,3747.2761000099126,1782.9204000008758,True,False
13,2,177.85573979999754,circle,"(-480.0, -270.0)",250.13380000018515,5279.732599999988,3315.3768999909516,False,True
13,3,178.1219335999922,circle,"(-480.0, -270.0)",262.2495999967214,5545.9263999946415,266.1937999946531,True,False
13,3,178.14164909999818,circle,"(-480.0, -270.0)",0,5565.641900000628,285.90930000063963,True,False
13,3,178.15555990001303,circle,"(-480.0, -270.0)",0,5579.552700015483,299.820100015495,True,False
13,3,178.17285599999013,circle,"(-480.0, -270.0)",0,5596.848799992586,317.1161999925971,True,False
13,3,178.189294300013,circle,"(-480.0, -270.0)",0,5613.287100015441,333.5545000154525,True,False
13,3,178.20600629999535,circle,"(-480.0, -270.0)",0,5629.999099997804,350.2664999978151,True,False
13,3,178.22318490000907,circle,"(-480.0, -270.0)",0,5647.177700011525,367.44510001153685,True,False
13,3,178.23902629999793,circle,"(-480.0, -270.0)",0,5663.019100000383,383.2865000003949,True,False
13,3,178.25598809999065,circle,"(-480.0, -270.0)",0,5679.980899993097,400.24829999310896,True,False
13,3,178.27235879999353,circle,"(-480.0, -270.0)",0,5696.351599995978,416.6189999959897,True,False
13,3,178.28937469999073,circle,"(-480.0, -270.0)",0,5713.367499993183,433.63489999319427,True,False
13,3,178.3051545000053,circle,"(-480.0, -270.0)",0,5729.147300007753,449.4147000077646,True,False
13,3,178.32178629998816,circle,"(-480.0, -270.0)",0,5745.779099990614,466.0464999906253,True,False
13,3,178.33894099999452,circle,"(-480.0, -270.0)",0,5762.933799996972,483.20119999698363,True,False
13,3,178.35549610000453,circle,"(-480.0, -270.0)",0,5779.488900006982,499.7563000069931,True,False
13,3,178.37197830001242,circle,"(-480.0, -270.0)",0,5795.971100014867,516.2385000148788,True,False
13,3,178.38875449998886,circle,"(-480.0, -270.0)",0,5812.747299991315,533.0146999913268,True,False
13,3,178.40537210000912,circle,"(-480.0, -270.0)",0,5829.364900011569,549.6323000115808,True,False
13,3,178.4225635000039,circle,"(-480.0, -270.0)",0,5846.556300006341,566.8237000063527,True,False
13,3,178.4393939000147,circle,"(-480.0, -270.0)",0,5863.386700017145,583.6541000171565,True,False
13,3,178.4559683999978,circle,"(-480.0, -270.0)",0,5879.961200000253,600.2286000002641,True,False
13,3,178.4725841000036,circle,"(-480.0, -270.0)",0,5896.576900006039,616.8443000060506,True,False
13,3,178.4892828000011,circle,"(-480.0, -270.0)",0,5913.275600003544,633.5430000035558,True,False
13,3,178.50604110001586,circle,"(-480.0, -270.0)",0,5930.033900018316,650.3013000183273,True,False
13,3,178.52241720000166,circle,"(-480.0, -270.0)",0,5946.410000004107,666.6774000041187,True,False
13,3,178.5391629000078,circle,"(-480.0, -270.0)",0,5963.1557000102475,683.4231000102591,True,False
13,3,178.5558280000114,circle,"(-480.0, -270.0)",0,5979.82080001384,700.0882000138517,True,False
13,3,178.57266959999106,circle,"(-480.0, -270.0)",0,5996.662399993511,716.9297999935225,True,False
13,3,178.58857200000784,circle,"(-480.0, -270.0)",0,6012.564800010296,732.8322000103071,True,False
13,3,178.60501980001573,circle,"(-480.0, -270.0)",0,6029.012600018177,749.2800000181887,True,False
13,3,178.6218857000058,circle,"(-480.0, -270.0)",0,6045.878500008257,766.1459000082687,True,False
13,3,178.6388627999986,circle,"(-480.0, -270.0)",0,6062.855600001058,783.1230000010692,True,False
13,3,178.65542110000388,circle,"(-480.0, -270.0)",0,6079.41390000633,799.6813000063412,True,False
13,3,178.67170700000133,circle,"(-480.0, -270.0)",0,6095.699800003786,815.9672000037972,True,False
13,3,178.68921129999217,circle,"(-480.0, -270.0)",0,6113.204099994618,833.47149999463,True,False
13,3,178.70584129999042,circle,"(-480.0, -270.0)",0,6129.834099992877,850.1014999928884,True,False
13,3,178.72215469999355,circle,"(-480.0, -270.0)",0,6146.147499996005,866.4148999960162,True,False
13,3,178.7397229000053,circle,"(-480.0, -270.0)",0,6163.715700007742,883.9831000077538,True,False
13,3,178.75627700000769,circle,"(-480.0, -270.0)",0,6180.269800010137,900.5372000101488,True,False
13,3,178.77290030001313,circle,"(-480.0, -270.0)",0,6196.893100015586,917.1605000155978,True,False
13,3,178.78956810000818,circle,"(-480.0, -270.0)",0,6213.560900010634,933.8283000106458,True,False
13,3,178.80566300000646,circle,"(-480.0, -270.0)",0,6229.6558000089135,949.923200008925,True,False
13,3,178.82190770001034,circle,"(-480.0, -270.0)",0,6245.9005000127945,966.1679000128061,True,False
13,3,178.83906970001408,circle,"(-480.0, -270.0)",0,6263.062500016531,983.3299000165425,True,False
13,3,178.8555895999889,circle,"(-480.0, -270.0)",0,6279.582399991341,999.8497999913525,True,False
13,3,178.87199240000336,circle,"(-480.0, -270.0)",0,6295.985200005816,1016.2526000058278,True,False
13,3,178.88886300000013,circle,"(-480.0, -270.0)",0,6312.8558000025805,1033.123200002592,True,False
13,3,178.9052769000118,circle,"(-480.0, -270.0)",0,6329.269700014265,1049.5371000142768,True,False
13,3,178.92222589999437,circle,"(-480.0, -270.0)",0,6346.218699996825,1066.4860999968369,True,False
13,3,178.93893599999137,circle,"(-480.0, -270.0)",0,6362.928799993824,1083.1961999938358,True,False
13,3,178.9556462999899,circle,"(-480.0, -270.0)",0,6379.639099992346,1099.9064999923576,True,False
13,3,178.97287249998772,circle,"(-480.0, -270.0)",0,6396.865299990168,1117.1326999901794,True,False
13,3,178.98935889999848,circle,"(-480.0, -270.0)",0,6413.351700000931,1133.6191000009421,True,False
13,3,179.00553860000218,circle,"(-480.0, -270.0)",0,6429.531400004635,1149.7988000046462,True,False
13,3,179.0220924000023,circle,"(-480.0, -270.0)",0,6446.085200004745,1166.3526000047568,True,False
13,3,179.03880489998846,circle,"(-480.0, -270.0)",0,6462.797699990915,1183.0650999909267,True,False
13,3,179.05501000001095,circle,"(-480.0, -270.0)",0,6479.002800013404,1199.270200013416,True,False
13,3,179.07154890001402,circle,"(-480.0, -270.0)",0,6495.541700016474,1215.809100016486,True,False
13,3,179.0886196999927,circle,"(-480.0, -270.0)",0,6512.612499995157,1232.8798999951687,True,False
13,3,179.10530130000552,circle,"(-480.0, -270.0)",0,6529.294100007974,1249.5615000079852,True,False
13,3,179.12171219999436,circle,"(-480.0, -270.0)",0,6545.704999996815,1265.9723999968264,True,False
13,3,179.13867280000704,circle,"(-480.0, -270.0)",0,6562.665600009495,1282.933000009507,True,False
13,3,179.15535099999397,circle,"(-480.0, -270.0)",0,6579.343799996423,1299.6111999964342,True,False
13,3,179.17207309999503,circle,"(-480.0, -270.0)",0,6596.065899997484,1316.3332999974955,True,False
13,3,179.18888669999433,circle,"(-480.0, -270.0)",0,6612.8794999967795,1333.146899996791,True,False
13,3,179.2054053999891,circle,"(-480.0, -270.0)",0,6629.398199991556,1349.6655999915674,True,False
13,3,179.22207600000547,circle,"(-480.0, -270.0)",0,6646.068800007924,1366.336200007936,True,False
13,3,179.238930099993,circle,"(-480.0, -270.0)",0,6662.922899995465,1383.1902999954764,True,False
13,3,179.25568150001345,circle,"(-480.0, -270.0)",0,6679.674300015904,1399.9417000159156,True,False
13,3,179.27286120000645,circle,"(-480.0, -270.0)",0,6696.854000008898,1417.1214000089094,True,False
13,3,179.28865999999107,circle,"(-480.0, -270.0)",0,6712.652799993521,1432.9201999935322,True,False
13,3,179.30544699999155,circle,"(-480.0, -270.0)",0,6729.439799993997,1449.707199994009,True,False
13,3,179.32209090000833,circle,"(-480.0, -270.0)",0,6746.083700010786,1466.3511000107974,True,False
13,3,179.33877510001184,circle,"(-480.0, -270.0)",0,6762.767900014296,1483.0353000143077,True,False
13,3,179.35552010001265,circle,"(-480.0, -270.0)",0,6779.512900015106,1499.780300015118,True,False
13,3,179.37188869999954,circle,"(-480.0, -270.0)",0,6795.881500001997,1516.1489000020083,True,False
13,3,179.3884672000131,circle,"(-480.0, -270.0)",0,6812.460000015562,1532.727400015574,True,False
13,3,179.40571950000594,circle,"(-480.0, -270.0)",0,6829.712300008396,1549.9797000084072,True,False
13,3,179.4219771999924,circle,"(-480.0, -270.0)",0,6845.96999999485,1566.2373999948613,True,False
13,3,179.43892310000956,circle,"(-480.0, -270.0)",0,6862.915900012013,1583.1833000120241,True,False
13,3,179.45556550001493,circle,"(-480.0, -270.0)",0,6879.558300017379,1599.8257000173908,True,False
13,3,179.47185719999834,circle,"(-480.0, -270.0)",0,6895.850000000792,1616.1174000008032,True,False
13,3,179.48959889999242,circle,"(-480.0, -270.0)",0,6913.591699994868,1633.8590999948792,True,False
13,3,179.50538700001198,circle,"(-480.0, -270.0)",0,6929.379800014431,1649.6472000144422,True,False
13,3,179.52239420000114,circle,"(-480.0, -270.0)",0,6946.387000003597,1666.6544000036083,True,False
13,3,179.53845389999333,circle,"(-480.0, -270.0)",0,6962.44669999578,1682.714099995792,True,False
13,3,179.55497850000393,circle,"(-480.0, -270.0)",0,6978.971300006378,1699.23870000639,True,False
13,3,179.57228870000108,circle,"(-480.0, -270.0)",0,6996.281500003533,1716.548900003545,True,False
13,3,179.58868330001133,circle,"(-480.0, -270.0)",0,7012.676100013778,1732.9435000137892,True,False
13,3,179.60545229999116,circle,"(-480.0, -270.0)",0,7029.445099993609,1749.7124999936204,True,False
13,3,179.62219940000796,circle,"(-480.0, -270.0)",0,7046.19220001041,1766.4596000104211,True,False
13,3,181.85412380000344,t,"(480.0, 270.0)",265.805500006536,9278.116600005887,3998.384000005899,False,True
13,4,186.38595900000655,circle,"(-480.0, -270.0)",266.5624000073876,13809.951800009003,4531.8352000031155,False,True
14,1,192.68364299999666,t,"(480.0, 270.0)",250.0133999856189,2428.8011000026017,2428.8011000026017,False,True
14,2,192.95081010001013,t,"(480.0, 270.0)",263.47760000498965,2695.9682000160683,267.16710001346655,True,False
14,2,192.96949560000212,t,"(480.0, 270.0)",0,2714.653700008057,285.8526000054553,True,False
14,2,192.98399889998836,t,"(480.0, 270.0)",0,2729.156999994302,300.3558999917004,True,False
14,2,193.00052659999346,t,"(480.0, 270.0)",0,2745.6846999994013,316.8835999967996,True,False
14,2,193.01770450000186,t,"(480.0, 270.0)",0,2762.862600007793,334.0615000051912,True,False
14,2,193.03414820000762,t,"(480.0, 270.0)",0,2779.306300013559,350.5052000109572,True,False
14,2,193.0505978000001,t,"(480.0, 270.0)",0,2795.755900006043,366.95480000344105,True,False
14,2,193.06726489998982,t,"(480.0, 270.0)",0,2812.4229999957606,383.6218999931589,True,False
14,2,193.08395339999697,t,"(480.0, 270.0)",0,2829.1115000029095,400.3104000003077,True,False
14,2,193.10070129999076,t,"(480.0, 270.0)",0,2845.859399996698,417.05829999409616,True,False
14,2,193.11721789999865,t,"(480.0, 270.0)",0,2862.3760000045877,433.57490000198595,True,False
14,2,193.1339694999915,t,"(480.0, 270.0)",0,2879.127599997446,450.3264999948442,True,False
14,2,193.15058839999256,t,"(480.0, 270.0)",0,2895.746499998495,466.94539999589324,True,False
14,2,193.16727480001282,t,"(480.0, 270.0)",0,2912.432900018757,483.63180001615547,True,False
14,2,193.1833956000046,t,"(480.0, 270.0)",0,2928.553700010525,499.7526000079233,True,False
14,2,193.20045040000696,t,"(480.0, 270.0)",0,2945.608500012895,516.8074000102933,True,False
14,2,193.21714620001148,t,"(480.0, 270.0)",0,2962.304300017422,533.5032000148203,True,False
14,2,193.23372769998969,t,"(480.0, 270.0)",0,2978.8857999956235,550.0846999930218,True,False
14,2,193.25076319999062,t,"(480.0, 270.0)",0,2995.921299996553,567.1201999939512,True,False
14,2,193.26738490001298,t,"(480.0, 270.0)",0,3012.5430000189226,583.7419000163209,True,False
14,2,193.2839294000005,t,"(480.0, 270.0)",0,3029.087500006426,600.2864000038244,True,False
14,2,193.30060439999215,t,"(480.0, 270.0)",0,3045.762499998091,616.961399995489,True,False
14,2,193.31746670001303,t,"(480.0, 270.0)",0,3062.624800018966,633.8237000163645,True,False
14,2,193.33387480000965,t,"(480.0, 270.0)",0,3079.0329000155907,650.231800012989,True,False
14,2,193.3505257999932,t,"(480.0, 270.0)",0,3095.6838999991305,666.8827999965288,True,False
14,2,193.36710249999305,t,"(480.0, 270.0)",0,3112.26059999899,683.4594999963883,True,False
14,2,193.3839399999997,t,"(480.0, 270.0)",0,3129.098100005649,700.2970000030473,True,False
14,2,193.40075709999655,t,"(480.0, 270.0)",0,3145.9152000024915,717.1140999998897,True,False
14,2,193.41681940000854,t,"(480.0, 270.0)",0,3161.9775000144728,733.176400011871,True,False
14,2,193.43347749998793,t,"(480.0, 270.0)",0,3178.635599993868,749.8344999912661,True,False
14,2,193.45075889999862,t,"(480.0, 270.0)",0,3195.917000004556,767.1159000019543,True,False
14,2,193.46730119999847,t,"(480.0, 270.0)",0,3212.4593000044115,783.6582000018097,True,False
14,2,193.48386010000831,t,"(480.0, 270.0)",0,3229.018200014252,800.2171000116505,True,False
14,2,193.5005596000119,t,"(480.0, 270.0)",0,3245.717700017849,816.9166000152472,True,False
14,2,193.51771780001582,t,"(480.0, 270.0)",0,3262.875900021754,834.0748000191525,True,False
14,2,193.53485319999163,t,"(480.0, 270.0)",0,3280.011299997568,851.2101999949664,True,False
14,2,193.55110270000296,t,"(480.0, 270.0)",0,3296.260800008895,867.4597000062931,True,False
14,2,193.5676392999885,t,"(480.0, 270.0)",0,3312.7973999944516,883.9962999918498,True,False
14,2,193.5841892999888,t,"(480.0, 270.0)",0,3329.347399994731,900.5462999921292,True,False
14,2,193.60116879999987,t,"(480.0, 270.0)",0,3346.3269000058062,917.5258000032045,True,False
14,2,193.61752170001273,t,"(480.0, 270.0)",0,3362.679800018668,933.8787000160664,True,False
14,2,193.63351839999086,t,"(480.0, 270.0)",0,3378.6764999968,949.8753999941982,True,False
14,2,193.65082050001365,t,"(480.0, 270.0)",0,3395.978600019589,967.1775000169873,True,False
14,2,193.66752769998857,t,"(480.0, 270.0)",0,3412.685799994506,983.8846999919042,True,False
14,2,193.68393659999128,t,"(480.0, 270.0)",0,3429.094699997222,1000.2935999946203,True,False
14,2,193.70068360000732,t,"(480.0, 270.0)",0,3445.8417000132613,1017.0406000106595,True,False
14,2,193.71713239999372,t,"(480.0, 270.0)",0,3462.2904999996535,1033.4893999970518,True,False
14,2,193.73380180000095,t,"(480.0, 270.0)",0,3478.9599000068847,1050.158800004283,True,False
14,2,193.75092489999952,t,"(480.0, 270.0)",0,3496.0830000054557,1067.281900002854,True,False
14,2,193.76735239999834,t,"(480.0, 270.0)",0,3512.510500004282,1083.7094000016805,True,False
14,2,193.78400419998798,t,"(480.0, 270.0)",0,3529.1622999939136,1100.3611999913119,True,False
14,2,193.801006099995,t,"(480.0, 270.0)",0,3546.1642000009306,1117.3630999983288,True,False
14,2,193.81758820000687,t,"(480.0, 270.0)",0,3562.7463000128046,1133.9452000102028,True,False
14,2,193.83391819999088,t,"(480.0, 270.0)",0,3579.0762999968138,1150.275199994212,True,False
14,2,193.8507302000071,t,"(480.0, 270.0)",0,3595.88830001303,1167.0872000104282,True,False
14,2,193.86742719999165,t,"(480.0, 270.0)",0,3612.5852999975905,1183.7841999949887,True,False
14,2,193.88382250000723,t,"(480.0, 270.0)",0,3628.980600013165,1200.179500010563,True,False
14,2,193.90057210001396,t,"(480.0, 270.0)",0,3645.730200019898,1216.9291000172962,True,False
14,2,193.9172147999925,t,"(480.0, 270.0)",0,3662.372899998445,1233.5717999958433,True,False
14,2,193.9341562000045,t,"(480.0, 270.0)",0,3679.3143000104465,1250.5132000078447,True,False
14,2,193.9503980000154,t,"(480.0, 270.0)",0,3695.5561000213493,1266.7550000187475,True,False
14,2,193.96727610001108,t,"(480.0, 270.0)",0,3712.4342000170145,1283.6331000144128,True,False
14,2,193.98389750000206,t,"(480.0, 270.0)",0,3729.055600007996,1300.2545000053942,True,False
14,2,194.00069089999306,t,"(480.0, 270.0)",0,3745.848999998998,1317.0478999963962,True,False
14,2,194.0171023000148,t,"(480.0, 270.0)",0,3762.2604000207502,1333.4593000181485,True,False
14,2,194.03404800000135,t,"(480.0, 270.0)",0,3779.2061000072863,1350.4050000046846,True,False
14,2,194.0508523999888,t,"(480.0, 270.0)",0,3796.010499994736,1367.2093999921344,True,False
14,2,194.06748649998917,t,"(480.0, 270.0)",0,3812.64459999511,1383.8434999925084,True,False
14,2,194.08389889998944,t,"(480.0, 270.0)",0,3829.056999995373,1400.2558999927714,True,False
14,2,194.1008140000049,t,"(480.0, 270.0)",0,3845.97210001084,1417.1710000082385,True,False
14,2,194.11737930000527,t,"(480.0, 270.0)",0,3862.537400011206,1433.7363000086043,True,False
14,2,194.13382740001543,t,"(480.0, 270.0)",0,3878.985500021372,1450.1844000187702,True,False
14,2,194.15071129999706,t,"(480.0, 270.0)",0,3895.8694000029936,1467.068300000392,True,False
14,2,194.16675629999372,t,"(480.0, 270.0)",0,3911.9143999996595,1483.1132999970578,True,False
14,2,194.1832693000033,t,"(480.0, 270.0)",0,3928.427400009241,1499.6263000066392,True,False
14,2,194.20048150001094,t,"(480.0, 270.0)",0,3945.639600016875,1516.8385000142734,True,False
14,2,194.21675310001592,t,"(480.0, 270.0)",0,3961.9112000218593,1533.1101000192575,True,False
14,2,194.23373460001312,t,"(480.0, 270.0)",0,3978.8927000190597,1550.091600016458,True,False
14,2,194.25056909999694,t,"(480.0, 270.0)",0,3995.727200002875,1566.9261000002734,True,False
14,2,194.26702100000693,t,"(480.0, 270.0)",0,4012.1791000128724,1583.3780000102706,True,False
14,2,194.2838580000098,t,"(480.0, 270.0)",0,4029.016100015724,1600.2150000131223,True,False
14,2,194.3011669999978,t,"(480.0, 270.0)",0,4046.3251000037417,1617.52400000114,True,False
14,2,194.31724239999312,t,"(480.0, 270.0)",0,4062.4004999990575,1633.5993999964558,True,False
14,2,194.33379639999475,t,"(480.0, 270.0)",0,4078.954500000691,1650.1533999980893,True,False
14,2,194.35213909999584,t,"(480.0, 270.0)",0,4097.297200001776,1668.4960999991745,True,False
14,2,194.36733330000425,t,"(480.0, 270.0)",0,4112.491400010185,1683.6903000075836,True,False
14,2,194.3840077999921,t,"(480.0, 270.0)",0,4129.165899998043,1700.364799995441,True,False
14,2,194.40011159999995,t,"(480.0, 270.0)",0,4145.269700005883,1716.4686000032816,True,False
14,2,194.4167335999955,t,"(480.0, 270.0)",0,4161.8917000014335,1733.0905999988317,True,False
14,2,194.43412970000645,t,"(480.0, 270.0)",0,4179.287800012389,1750.4867000097875,True,False
14,2,194.45071569998981,t,"(480.0, 270.0)",0,4195.873799995752,1767.0726999931503,True,False
14,2,197.43321409999044,cross,"(480.0, -270.0)",266.90529999905266,7178.372199996375,4749.571099993773,False,True
14,3,197.69941319999634,cross,"(480.0, -270.0)",263.2449000084307,7444.571300002281,266.1991000059061,True,False
14,3,197.71836050000275,cross,"(480.0, -270.0)",0,7463.518600008683,285.14640001230873,True,False
14,3,197.73265749998973,cross,"(480.0, -270.0)",0,7477.815599995665,299.4433999992907,True,False
14,3,197.7496145000041,cross,"(480.0, -270.0)",0,7494.772600010037,316.4004000136629,True,False
14,3,197.76605820000987,cross,"(480.0, -270.0)",0,7511.216300015803,332.8441000194289,True,False
14,3,197.78284639999038,cross,"(480.0, -270.0)",0,7528.004499996314,349.6322999999393,True,False
14,3,197.79968550000922,cross,"(480.0, -270.0)",0,7544.843600015156,366.4714000187814,True,False
14,3,197.81540270001278,cross,"(480.0, -270.0)",0,7560.56080001872,382.1886000223458,True,False
14,3,197.83235820001573,cross,"(480.0, -270.0)",0,7577.516300021671,399.1441000252962,True,False
14,3,197.84883000000264,cross,"(480.0, -270.0)",0,7593.988100008573,415.61590001219884,True,False
14,3,197.86572500001057,cross,"(480.0, -270.0)",0,7610.883100016508,432.5109000201337,True,False
14,3,197.88243070000317,cross,"(480.0, -270.0)",0,7627.588800009107,449.21660001273267,True,False
14,3,197.89946939999936,cross,"(480.0, -270.0)",0,7644.627500005299,466.2553000089247,True,False
14,3,197.91627740001422,cross,"(480.0, -270.0)",0,7661.435500020161,483.0633000237867,True,False
14,3,197.93286770000122,cross,"(480.0, -270.0)",0,7678.025800007163,499.65360001078807,True,False
14,3,197.94973890000256,cross,"(480.0, -270.0)",0,7694.8970000084955,516.524800012121,True,False
14,3,197.96618650000892,cross,"(480.0, -270.0)",0,7711.344600014854,532.9724000184797,True,False
14,3,197.98283620001166,cross,"(480.0, -270.0)",0,7727.994300017599,549.6221000212245,True,False
14,3,197.99931210000068,cross,"(480.0, -270.0)",0,7744.470200006617,566.0980000102427,True,False
14,3,198.0161236000131,cross,"(480.0, -270.0)",0,7761.281700019026,582.9095000226516,True,False
14,3,198.03276599998935,cross,"(480.0, -270.0)",0,7777.924099995289,599.5518999989145,True,False
14,3,198.04863440000918,cross,"(480.0, -270.0)",0,7793.792500015115,615.4203000187408,True,False
14,3,198.06557139998768,cross,"(480.0, -270.0)",0,7810.729499993613,632.3572999972384,True,False
14,3,198.08217350000632,cross,"(480.0, -270.0)",0,7827.331600012258,648.9594000158831,True,False
14,3,198.09937589999754,cross,"(480.0, -270.0)",0,7844.534000003478,666.161800007103,True,False
14,3,198.11567590001505,cross,"(480.0, -270.0)",0,7860.834000020986,682.4618000246119,True,False
14,3,198.13265760001377,cross,"(480.0, -270.0)",0,7877.81570001971,699.4435000233352,True,False
14,3,198.14958009999827,cross,"(480.0, -270.0)",0,7894.738200004213,716.366000007838,True,False
14,3,198.16628619999392,cross,"(480.0, -270.0)",0,7911.444299999857,733.0721000034828,True,False
14,3,198.18260599998757,cross,"(480.0, -270.0)",0,7927.76409999351,749.3918999971356,True,False
14,3,198.19934590000776,cross,"(480.0, -270.0)",0,7944.504000013694,766.1318000173196,True,False
14,3,198.215996599989,cross,"(480.0, -270.0)",0,7961.15469999495,782.7824999985751,True,False
14,3,198.23272190001444,cross,"(480.0, -270.0)",0,7977.880000020377,799.5078000240028,True,False
14,3,198.24916440001107,cross,"(480.0, -270.0)",0,7994.322500017006,815.9503000206314,True,False
14,3,198.26584559999174,cross,"(480.0, -270.0)",0,8011.003699997673,832.6315000012983,True,False
14,3,198.28244370000903,cross,"(480.0, -270.0)",0,8027.601800014963,849.2296000185888,True,False
14,3,198.29914519999875,cross,"(480.0, -270.0)",0,8044.303300004685,865.9311000083108,True,False
14,3,198.31555940001272,cross,"(480.0, -270.0)",0,8060.717500018654,882.3453000222798,True,False
14,3,198.33224200000404,cross,"(480.0, -270.0)",0,8077.4001000099815,899.027900013607,True,False
14,3,198.34886160001042,cross,"(480.0, -270.0)",0,8094.019700016361,915.6475000199862,True,False
14,3,198.3660719000036,cross,"(480.0, -270.0)",0,8111.230000009527,932.8578000131529,True,False
14,3,198.3822601000138,cross,"(480.0, -270.0)",0,8127.418200019747,949.0460000233725,True,False
14,3,198.39917550000246,cross,"(480.0, -270.0)",0,8144.333600008395,965.96140001202,True,False
14,3,198.41571269999258,cross,"(480.0, -270.0)",0,8160.87079999852,982.4986000021454,True,False
14,3,198.43248260000837,cross,"(480.0, -270.0)",0,8177.640700014308,999.2685000179335,True,False
14,3,198.44916320001357,cross,"(480.0, -270.0)",0,8194.32130001951,1015.9491000231355,True,False
14,3,198.46580919998814,cross,"(480.0, -270.0)",0,8210.967299994081,1032.5950999977067,True,False
14,3,198.48256040000706,cross,"(480.0, -270.0)",0,8227.718500012998,1049.346300016623,True,False
14,3,198.49868399999104,cross,"(480.0, -270.0)",0,8243.842099996982,1065.4699000006076,True,False
14,3,198.51522180001484,cross,"(480.0, -270.0)",0,8260.37990002078,1082.0077000244055,True,False
14,3,198.53235150000546,cross,"(480.0, -270.0)",0,8277.509600011399,1099.1374000150245,True,False
14,3,198.5489660000021,cross,"(480.0, -270.0)",0,8294.124100008048,1115.7519000116736,True,False
14,3,198.5654926999996,cross,"(480.0, -270.0)",0,8310.650800005533,1132.2786000091583,True,False
14,3,198.58232779998798,cross,"(480.0, -270.0)",0,8327.485899993917,1149.1136999975424,True,False
14,3,198.59934270000667,cross,"(480.0, -270.0)",0,8344.50080001261,1166.1286000162363,True,False
14,3,198.61577430000762,cross,"(480.0, -270.0)",0,8360.932400013553,1182.5602000171784,True,False
14,3,198.63242450001417,cross,"(480.0, -270.0)",0,8377.582600020105,1199.2104000237305,True,False
14,3,198.6490455000021,cross,"(480.0, -270.0)",0,8394.20360000804,1215.8314000116661,True,False
14,3,198.6656733000127,cross,"(480.0, -270.0)",0,8410.831400018651,1232.4592000222765,True,False
14,3,198.6828177999996,cross,"(480.0, -270.0)",0,8427.97590000555,1249.6037000091746,True,False
14,3,198.69936349999625,cross,"(480.0, -270.0)",0,8444.52160000219,1266.1494000058156,True,False
14,3,198.71600419998867,cross,"(480.0, -270.0)",0,8461.162299994612,1282.7900999982376,True,False
14,3,198.73208879999584,cross,"(480.0, -270.0)",0,8477.246900001774,1298.874700005399,True,False
14,3,198.74861559999408,cross,"(480.0, -270.0)",0,8493.77370000002,1315.4015000036452,True,False
14,3,198.7655947000021,cross,"(480.0, -270.0)",0,8510.75280000805,1332.3806000116747,True,False
14,3,198.78218239999842,cross,"(480.0, -270.0)",0,8527.340500004357,1348.9683000079822,True,False
14,3,198.7990134000138,cross,"(480.0, -270.0)",0,8544.17150001973,1365.7993000233546,True,False
14,3,198.81574869999895,cross,"(480.0, -270.0)",0,8560.906800004886,1382.534600008512,True,False
14,3,198.83225129998755,cross,"(480.0, -270.0)",0,8577.409399993485,1399.0371999971103,True,False
14,3,198.84899950001272,cross,"(480.0, -270.0)",0,8594.157600018661,1415.785400022287,True,False
14,3,198.86558819998754,cross,"(480.0, -270.0)",0,8610.74629999348,1432.374099997105,True,False
14,3,198.88233029999537,cross,"(480.0, -270.0)",0,8627.488400001312,1449.1162000049371,True,False
14,3,198.89896419999423,cross,"(480.0, -270.0)",0,8644.122300000163,1465.7501000037882,True,False
14,3,198.91570270000375,cross,"(480.0, -270.0)",0,8660.860800009686,1482.488600013312,True,False
14,3,198.93229850000353,cross,"(480.0, -270.0)",0,8677.456600009464,1499.0844000130892,True,False
14,3,198.94866439999896,cross,"(480.0, -270.0)",0,8693.822500004899,1515.4503000085242,True,False
14,3,198.96559720000369,cross,"(480.0, -270.0)",0,8710.755300009623,1532.3831000132486,True,False
14,3,198.98221990000457,cross,"(480.0, -270.0)",0,8727.378000010503,1549.005800014129,True,False
14,3,198.9989035000035,cross,"(480.0, -270.0)",0,8744.061600009445,1565.6894000130706,True,False
14,3,199.0153261999949,cross,"(480.0, -270.0)",0,8760.484300000826,1582.1121000044513,True,False
14,3,199.0321389999881,cross,"(480.0, -270.0)",0,8777.29709999403,1598.9248999976553,True,False
14,3,199.04904010001337,cross,"(480.0, -270.0)",0,8794.19820001931,1615.8260000229347,True,False
14,3,199.0657993000059,cross,"(480.0, -270.0)",0,8810.95740001183,1632.5852000154555,True,False
14,3,199.08224749998772,cross,"(480.0, -270.0)",0,8827.405599993654,1649.033399997279,True,False
14,3,199.09894460000214,cross,"(480.0, -270.0)",0,8844.10270000808,1665.7305000117049,True,False
14,3,199.1157177000132,cross,"(480.0, -270.0)",0,8860.87580001913,1682.5036000227556,True,False
14,3,199.13228560000425,cross,"(480.0, -270.0)",0,8877.44370001019,1699.0715000138152,True,False
14,3,199.1495428000053,cross,"(480.0, -270.0)",0,8894.70090001123,1716.3287000148557,True,False
14,3,199.1656384000089,cross,"(480.0, -270.0)",0,8910.79650001484,1732.4243000184651,True,False
14,3,199.1821229000052,cross,"(480.0, -270.0)",0,8927.281000011135,1748.9088000147603,True,False
14,3,199.1994365999999,cross,"(480.0, -270.0)",0,8944.594700005837,1766.2225000094622,True,False
14,3,199.21595099999104,cross,"(480.0, -270.0)",0,8961.109099996975,1782.7369000006001,True,False
14,3,202.11429629998747,circle,"(-480.0, -270.0)",250.4373999836389,11859.45439999341,4681.082199997036,False,True
14,4,204.87986670000828,star,"(-480.0, 270.0)",266.28080001682974,14625.024800014216,2765.570400020806,False,True
15,1,210.1113178000087,circle,"(-480.0, -270.0)",266.4594000088982,1379.0119000186678,1379.0119000186678,False,True
15,2,210.37818070000503,circle,"(-480.0, -270.0)",263.35250001284294,1645.874800015008,266.8628999963403,True,False
15,2,210.39801740000257,circle,"(-480.0, -270.0)",0,1665.7115000125486,286.69959999388084,True,False
15,2,210.41243649998796,circle,"(-480.0, -270.0)",0,1680.1305999979377,301.1186999792699,True,False
15,2,210.42862469999818,circle,"(-480.0, -270.0)",0,1696.3188000081573,317.30689998948947,True,False
15,2,210.44536360001075,circle,"(-480.0, -270.0)",0,1713.0577000207268,334.04580000205897,True,False
15,2,210.46160589999636,circle,"(-480.0, -270.0)",0,1729.300000006333,350.2880999876652,True,False
15,2,210.4784432000015,circle,"(-480.0, -270.0)",0,1746.137300011469,367.12539999280125,True,False
15,2,210.4951349000039,circle,"(-480.0, -270.0)",0,1762.8290000138804,383.81709999521263,True,False
15,2,210.51153160000104,circle,"(-480.0, -270.0)",0,1779.2257000110112,400.2137999923434,True,False
15,2,210.528330000001,circle,"(-480.0, -270.0)",0,1796.0241000109818,417.012199992314,True,False
15,2,210.5451616999926,circle,"(-480.0, -270.0)",0,1812.8558000025805,433.8438999839127,True,False
15,2,210.56510830001207,circle,"(-480.0, -270.0)",0,1832.8024000220466,453.79050000337884,True,False
15,2,210.57847149998997,circle,"(-480.0, -270.0)",0,1846.1655999999493,467.15369998128153,True,False
15,2,210.59507889999077,circle,"(-480.0, -270.0)",0,1862.7730000007432,483.7610999820754,True,False
15,2,210.61153270001523,circle,"(-480.0, -270.0)",0,1879.226800025208,500.2149000065401,True,False
15,2,210.62857500000973,circle,"(-480.0, -270.0)",0,1896.2691000197083,517.2572000010405,True,False
15,2,210.6451734000002,circle,"(-480.0, -270.0)",0,1912.8675000101794,533.8555999915116,True,False
15,2,210.66281730000628,circle,"(-480.0, -270.0)",0,1930.5114000162575,551.4994999975897,True,False
15,2,210.6785455000063,circle,"(-480.0, -270.0)",0,1946.2396000162698,567.227699997602,True,False
15,2,210.69559019998997,circle,"(-480.0, -270.0)",0,1963.2842999999411,584.2723999812733,True,False
15,2,210.71285989999888,circle,"(-480.0, -270.0)",0,1980.5540000088513,601.5420999901835,True,False
15,2,210.72858819999965,circle,"(-480.0, -270.0)",0,1996.282300009625,617.2703999909572,True,False
15,2,210.74541579998913,circle,"(-480.0, -270.0)",0,2013.1098999991082,634.0979999804404,True,False
15,2,210.76189379999414,circle,"(-480.0, -270.0)",0,2029.5879000041168,650.575999985449,True,False
15,2,210.77808069999446,circle,"(-480.0, -270.0)",0,2045.7748000044376,666.7628999857698,True,False
15,2,210.79553289999603,circle,"(-480.0, -270.0)",0,2063.227000006009,684.2150999873411,True,False
15,2,210.81171099998755,circle,"(-480.0, -270.0)",0,2079.4050999975298,700.393199978862,True,False
15,2,210.8283539999975,circle,"(-480.0, -270.0)",0,2096.048100007465,717.0361999887973,True,False
15,2,210.8451633999939,circle,"(-480.0, -270.0)",0,2112.8575000038836,733.8455999852158,True,False
15,2,210.86236669999198,circle,"(-480.0, -270.0)",0,2130.0608000019565,751.0488999832887,True,False
15,2,210.878850100009,circle,"(-480.0, -270.0)",0,2146.5442000189796,767.5323000003118,True,False
15,2,210.89541100000497,circle,"(-480.0, -270.0)",0,2163.1051000149455,784.0931999962777,True,False
15,2,210.91233379999176,circle,"(-480.0, -270.0)",0,2180.0279000017326,801.0159999830648,True,False
15,2,210.92878899999778,circle,"(-480.0, -270.0)",0,2196.483100007754,817.471199989086,True,False
15,2,210.94540120000602,circle,"(-480.0, -270.0)",0,2213.0953000159934,834.0833999973256,True,False
15,2,210.96196730001247,circle,"(-480.0, -270.0)",0,2229.661400022451,850.649500003783,True,False
15,2,210.9832180000085,circle,"(-480.0, -270.0)",0,2250.9121000184678,871.9001999998,True,False
15,2,210.99653649999527,circle,"(-480.0, -270.0)",0,2264.2306000052486,885.2186999865808,True,False
15,2,211.01194940001005,circle,"(-480.0, -270.0)",0,2279.643500020029,900.6316000013612,True,False
15,2,211.02833500000997,circle,"(-480.0, -270.0)",0,2296.0291000199504,917.0172000012826,True,False
15,2,211.04517240001587,circle,"(-480.0, -270.0)",0,2312.866500025848,933.8546000071801,True,False
15,2,211.06172299999162,circle,"(-480.0, -270.0)",0,2329.417100001592,950.4051999829244,True,False
15,2,211.07814450000296,circle,"(-480.0, -270.0)",0,2345.8386000129394,966.8266999942716,True,False
15,2,211.09496019998915,circle,"(-480.0, -270.0)",0,2362.6542999991216,983.6423999804538,True,False
15,2,211.11183690000325,circle,"(-480.0, -270.0)",0,2379.5310000132304,1000.5190999945626,True,False
15,2,211.128260700003,circle,"(-480.0, -270.0)",0,2395.954800012987,1016.9428999943193,True,False
15,2,211.14508720001322,circle,"(-480.0, -270.0)",0,2412.781300023198,1033.7694000045303,True,False
15,2,211.1609238999954,circle,"(-480.0, -270.0)",0,2428.618000005372,1049.606099986704,True,False
15,2,211.17796349999844,circle,"(-480.0, -270.0)",0,2445.657600008417,1066.6456999897491,True,False
15,2,211.19505750000826,circle,"(-480.0, -270.0)",0,2462.751600018237,1083.739699999569,True,False
15,2,211.2116348000127,circle,"(-480.0, -270.0)",0,2479.328900022665,1100.3170000039972,True,False
15,2,211.2284912999894,circle,"(-480.0, -270.0)",0,2496.1853999993764,1117.1734999807086,True,False
15,2,211.24480119999498,circle,"(-480.0, -270.0)",0,2512.4953000049572,1133.4833999862894,True,False
15,2,211.26180770000792,circle,"(-480.0, -270.0)",0,2529.501800017897,1150.4898999992292,True,False
15,2,211.2781404000125,circle,"(-480.0, -270.0)",0,2545.8345000224654,1166.8226000037976,True,False
15,2,211.2950048999919,circle,"(-480.0, -270.0)",0,2562.699000001885,1183.6870999832172,True,False
15,2,211.31154439999955,circle,"(-480.0, -270.0)",0,2579.2385000095237,1200.226599990856,True,False
15,2,211.32796600001166,circle,"(-480.0, -270.0)",0,2595.6601000216324,1216.6482000029646,True,False
15,2,211.34458289999748,circle,"(-480.0, -270.0)",0,2612.2770000074524,1233.2650999887846,True,False
15,2,211.36112419998972,circle,"(-480.0, -270.0)",0,2628.8182999996934,1249.8063999810256,True,False
15,2,211.37807299999986,circle,"(-480.0, -270.0)",0,2645.7671000098344,1266.7551999911666,True,False
15,2,211.39477010001428,circle,"(-480.0, -270.0)",0,2662.46420002426,1283.4523000055924,True,False
15,2,211.41129369998816,circle,"(-480.0, -270.0)",0,2678.98779999814,1299.9758999794722,True,False
15,2,211.42812319999211,circle,"(-480.0, -270.0)",0,2695.8173000020906,1316.8053999834228,True,False
15,2,211.44474649999756,circle,"(-480.0, -270.0)",0,2712.4406000075396,1333.4286999888718,True,False
15,2,211.46132080000825,circle,"(-480.0, -270.0)",0,2729.014900018228,1350.0029999995604,True,False
15,2,211.47815050001373,circle,"(-480.0, -270.0)",0,2745.844600023702,1366.832700005034,True,False
15,2,211.49484970001504,circle,"(-480.0, -270.0)",0,2762.543800025014,1383.5319000063464,True,False
15,2,211.51143730001058,circle,"(-480.0, -270.0)",0,2779.1314000205602,1400.1195000018924,True,False
15,2,211.52806030001375,circle,"(-480.0, -270.0)",0,2795.754400023725,1416.742500005057,True,False
15,2,211.54488739999942,circle,"(-480.0, -270.0)",0,2812.5815000094008,1433.569599990733,True,False
15,2,211.56149890000233,circle,"(-480.0, -270.0)",0,2829.19300001231,1450.1810999936424,True,False
15,2,211.57815960000153,circle,"(-480.0, -270.0)",0,2845.853700011503,1466.8417999928351,True,False
15,2,211.59488779999083,circle,"(-480.0, -270.0)",0,2862.581900000805,1483.5699999821372,True,False
15,2,211.61184590001358,circle,"(-480.0, -270.0)",0,2879.540000023553,1500.5281000048853,True,False
15,2,211.62813659998938,circle,"(-480.0, -270.0)",0,2895.830699999351,1516.8187999806833,True,False
15,2,211.64473530001123,circle,"(-480.0, -270.0)",0,2912.4294000212103,1533.4175000025425,True,False
15,2,211.660941500013,circle,"(-480.0, -270.0)",0,2928.6356000229716,1549.6237000043038,True,False
15,2,211.67813029998797,circle,"(-480.0, -270.0)",0,2945.824399997946,1566.812499979278,True,False
15,2,211.69530039999518,circle,"(-480.0, -270.0)",0,2962.994500005152,1583.9825999864843,True,False
15,2,211.71231490001082,circle,"(-480.0, -270.0)",0,2980.0090000208,1600.9971000021324,True,False
15,2,211.72835059999488,circle,"(-480.0, -270.0)",0,2996.044700004859,1617.032799986191,True,False
15,2,211.74555590000818,circle,"(-480.0, -270.0)",0,3013.250000018161,1634.238099999493,True,False
15,2,211.76149239999359,circle,"(-480.0, -270.0)",0,3029.1865000035614,1650.1745999848936,True,False
15,2,211.77833400000236,circle,"(-480.0, -270.0)",0,3046.028100012336,1667.0161999936681,True,False
15,2,211.79503169999225,circle,"(-480.0, -270.0)",0,3062.7258000022266,1683.7138999835588,True,False
15,2,211.81146880000597,circle,"(-480.0, -270.0)",0,3079.1629000159446,1700.1509999972768,True,False
15,2,211.82831650000298,circle,"(-480.0, -270.0)",0,3096.01060001296,1716.998699994292,True,False
15,2,211.84516019999865,circle,"(-480.0, -270.0)",0,3112.854300008621,1733.8423999899533,True,False
15,2,211.86135260001174,circle,"(-480.0, -270.0)",0,3129.0467000217177,1750.03480000305,True,False
15,2,211.87791370000923,circle,"(-480.0, -270.0)",0,3145.6078000192065,1766.5959000005387,True,False
15,2,211.89486329999636,circle,"(-480.0, -270.0)",0,3162.5574000063352,1783.5454999876674,True,False
16,1,219.75874300001306,circle,"(-480.0, -270.0)",250.54100001580082,580.5947000044398,580.5947000044398,False,True
16,2,220.02622520001023,circle,"(-480.0, -270.0)",264.16630001040176,848.0769000016153,267.4821999971755,True,False
16,2,220.04432300000917,circle,"(-480.0, -270.0)",0,866.1747000005562,285.5799999961164,True,False
16,2,220.05840390000958,circle,"(-480.0, -270.0)",0,880.2556000009645,299.6608999965247,True,False
16,2,220.0750704999955,circle,"(-480.0, -270.0)",0,896.9221999868751,316.32749998243526,True,False
16,2,220.09171609999612,circle,"(-480.0, -270.0)",0,913.5677999875043,332.97309998306446,True,False
16,2,220.10862539999653,circle,"(-480.0, -270.0)",0,930.4770999879111,349.88239998347126,True,False
16,2,220.12509640000644,circle,"(-480.0, -270.0)",0,946.9480999978259,366.3533999933861,True,False
16,2,220.14171339999302,circle,"(-480.0, -270.0)",0,963.5650999844074,382.9703999799676,True,False
16,2,220.15885189999244,circle,"(-480.0, -270.0)",0,980.7035999838263,400.1088999793865,True,False
16,2,220.17531290001352,circle,"(-480.0, -270.0)",0,997.1646000049077,416.5699000004679,True,False
16,2,220.19170699999086,circle,"(-480.0, -270.0)",0,1013.5586999822408,432.963999977801,True,False
16,2,220.20814130001236,circle,"(-480.0, -270.0)",0,1029.993000003742,449.39829999930225,True,False
16,2,220.22492509998847,circle,"(-480.0, -270.0)",0,1046.7767999798525,466.1820999754127,True,False
16,2,220.24167399998987,circle,"(-480.0, -270.0)",0,1063.5256999812555,482.93099997681566,True,False
16,2,220.25861109999823,circle,"(-480.0, -270.0)",0,1080.4627999896184,499.86809998517856,True,False
16,2,220.27504659999977,circle,"(-480.0, -270.0)",0,1096.8982999911532,516.3035999867134,True,False
16,2,220.29179680001107,circle,"(-480.0, -270.0)",0,1113.648500002455,533.0537999980152,True,False
16,2,220.3086137000064,circle,"(-480.0, -270.0)",0,1130.4653999977745,549.8706999933347,True,False
16,2,220.32535970001481,circle,"(-480.0, -270.0)",0,1147.2114000061993,566.6167000017595,True,False
16,2,220.3418851000024,circle,"(-480.0, -270.0)",0,1163.736799993785,583.1420999893453,True,False
16,2,220.35864650001167,circle,"(-480.0, -270.0)",0,1180.4982000030577,599.9034999986179,True,False
16,2,220.37574270000914,circle,"(-480.0, -270.0)",0,1197.5944000005256,616.9996999960858,True,False
16,2,220.3919572000159,circle,"(-480.0, -270.0)",0,1213.8089000072796,633.2142000028398,True,False
16,2,220.4085580999963,circle,"(-480.0, -270.0)",0,1230.409799987683,649.8150999832433,True,False
16,2,220.42478209998808,circle,"(-480.0, -270.0)",0,1246.6337999794632,666.0390999750234,True,False
16,2,220.44130649999715,circle,"(-480.0, -270.0)",0,1263.1581999885384,682.5634999840986,True,False
16,2,220.45827219999046,circle,"(-480.0, -270.0)",0,1280.1238999818452,699.5291999774054,True,False
16,2,220.47517250000965,circle,"(-480.0, -270.0)",0,1297.024200001033,716.4294999965932,True,False
16,2,220.4918539999926,circle,"(-480.0, -270.0)",0,1313.7056999839842,733.1109999795444,True,False
16,2,220.5080353000085,circle,"(-480.0, -270.0)",0,1329.8869999998715,749.2922999954317,True,False
16,2,220.5250992999936,circle,"(-480.0, -270.0)",0,1346.9509999849834,766.3562999805436,True,False
16,2,220.54165200001444,circle,"(-480.0, -270.0)",0,1363.5037000058219,782.9090000013821,True,False
16,2,220.5601553999877,circle,"(-480.0, -270.0)",0,1382.0070999790914,801.4123999746516,True,False
16,2,220.57489799999166,circle,"(-480.0, -270.0)",0,1396.7496999830473,816.1549999786075,True,False
16,2,220.5919353000063,circle,"(-480.0, -270.0)",0,1413.7869999976829,833.1922999932431,True,False
16,2,220.60849049998797,circle,"(-480.0, -270.0)",0,1430.34219997935,849.7474999749102,True,False
16,2,220.62503140000626,circle,"(-480.0, -270.0)",0,1446.883099997649,866.2883999932092,True,False
16,2,220.64196690000244,circle,"(-480.0, -270.0)",0,1463.8185999938287,883.2238999893889,True,False
16,2,220.658480699989,circle,"(-480.0, -270.0)",0,1480.332399980398,899.7376999759581,True,False
16,2,220.67511149999336,circle,"(-480.0, -270.0)",0,1496.963199984748,916.3684999803081,True,False
16,2,220.6914711999998,circle,"(-480.0, -270.0)",0,1513.3228999911807,932.728199986741,True,False
16,2,220.70804480000515,circle,"(-480.0, -270.0)",0,1529.8964999965392,949.3017999920994,True,False
16,2,220.7251457000093,circle,"(-480.0, -270.0)",0,1546.9974000006914,966.4026999962516,True,False
16,2,220.74192080000648,circle,"(-480.0, -270.0)",0,1563.7724999978673,983.1777999934275,True,False
16,2,220.7583130999992,circle,"(-480.0, -270.0)",0,1580.164799990598,999.5700999861583,True,False
16,2,220.77506370001356,circle,"(-480.0, -270.0)",0,1596.9154000049457,1016.3207000005059,True,False
16,2,220.7915234999964,circle,"(-480.0, -270.0)",0,1613.375199987786,1032.780499983346,True,False
16,2,220.8084150000068,circle,"(-480.0, -270.0)",0,1630.2666999981739,1049.671999993734,True,False
16,2,220.82512029999634,circle,"(-480.0, -270.0)",0,1646.971999987727,1066.3772999832872,True,False
16,2,220.8414291999943,circle,"(-480.0, -270.0)",0,1663.2808999856934,1082.6861999812536,True,False
16,2,220.8582003999909,circle,"(-480.0, -270.0)",0,1680.0520999822766,1099.4573999778368,True,False
16,2,220.87490570000955,circle,"(-480.0, -270.0)",0,1696.7574000009336,1116.1626999964938,True,False
16,2,220.89147060000687,circle,"(-480.0, -270.0)",0,1713.3222999982536,1132.7275999938138,True,False
16,2,220.90777330001583,circle,"(-480.0, -270.0)",0,1729.6250000072177,1149.030300002778,True,False
16,2,220.92444810000597,circle,"(-480.0, -270.0)",0,1746.2997999973595,1165.7050999929197,True,False
16,2,220.94138559998828,circle,"(-480.0, -270.0)",0,1763.2372999796644,1182.6425999752246,True,False
16,2,220.95801010000287,circle,"(-480.0, -270.0)",0,1779.8617999942508,1199.267099989811,True,False
16,2,220.974790200009,circle,"(-480.0, -270.0)",0,1796.6419000003953,1216.0471999959555,True,False
16,2,220.99151900000288,circle,"(-480.0, -270.0)",0,1813.370699994266,1232.7759999898262,True,False
16,2,221.00817200000165,circle,"(-480.0, -270.0)",0,1830.0236999930348,1249.428999988595,True,False
16,2,221.0250398000062,circle,"(-480.0, -270.0)",0,1846.8914999975823,1266.2967999931425,True,False
16,2,221.04173160000937,circle,"(-480.0, -270.0)",0,1863.5833000007551,1282.9885999963153,True,False
16,2,221.05817559998832,circle,"(-480.0, -270.0)",0,1880.0272999797016,1299.4325999752618,True,False
16,2,221.0749949000019,circle,"(-480.0, -270.0)",0,1896.846599993296,1316.2518999888562,True,False
16,2,221.09142099999008,circle,"(-480.0, -270.0)",0,1913.2726999814622,1332.6779999770224,True,False
16,2,221.1081673000008,circle,"(-480.0, -270.0)",0,1930.0189999921713,1349.4242999877315,True,False
16,2,221.125077100005,circle,"(-480.0, -270.0)",0,1946.9287999963854,1366.3340999919455,True,False
16,2,221.14166630001273,circle,"(-480.0, -270.0)",0,1963.5180000041146,1382.9232999996748,True,False
16,2,221.15862969998852,circle,"(-480.0, -270.0)",0,1980.481399979908,1399.8866999754682,True,False
16,2,221.1746645999956,circle,"(-480.0, -270.0)",0,1996.516299986979,1415.9215999825392,True,False
16,2,221.1913884000096,circle,"(-480.0, -270.0)",0,2013.240100000985,1432.6453999965452,True,False
16,2,221.20801380000194,circle,"(-480.0, -270.0)",0,2029.8654999933206,1449.2707999888808,True,False
16,2,221.22486789998948,circle,"(-480.0, -270.0)",0,2046.719599980861,1466.1248999764211,True,False
16,2,221.24156439999933,circle,"(-480.0, -270.0)",0,2063.416099990718,1482.8213999862783,True,False
16,2,221.25800329999765,circle,"(-480.0, -270.0)",0,2079.8549999890383,1499.2602999845985,True,False
16,2,221.2750051000039,circle,"(-480.0, -270.0)",0,2096.856799995294,1516.262099990854,True,False
16,2,221.29167939999024,circle,"(-480.0, -270.0)",0,2113.5310999816284,1532.9363999771886,True,False
16,2,221.30805799999507,circle,"(-480.0, -270.0)",0,2129.909699986456,1549.3149999820162,True,False
16,2,221.32476190000307,circle,"(-480.0, -270.0)",0,2146.6135999944527,1566.0188999900129,True,False
16,2,221.34123399999226,circle,"(-480.0, -270.0)",0,2163.0856999836396,1582.4909999791998,True,False
16,2,221.35799640000914,circle,"(-480.0, -270.0)",0,2179.8481000005268,1599.253399996087,True,False
16,2,221.37483280000743,circle,"(-480.0, -270.0)",0,2196.6844999988098,1616.08979999437,True,False
16,2,221.3913634000055,circle,"(-480.0, -270.0)",0,2213.215099996887,1632.6203999924473,True,False
16,2,221.40793660000782,circle,"(-480.0, -270.0)",0,2229.7882999992,1649.19359999476,True,False
16,2,221.42458839999745,circle,"(-480.0, -270.0)",0,2246.440099988831,1665.8453999843914,True,False
16,2,221.44140050001442,circle,"(-480.0, -270.0)",0,2263.252200005809,1682.657500001369,True,False
16,2,221.4580133999989,circle,"(-480.0, -270.0)",0,2279.8650999902748,1699.270399985835,True,False
16,2,221.47473799998988,circle,"(-480.0, -270.0)",0,2296.5896999812685,1715.9949999768287,True,False
16,2,221.49114030000055,circle,"(-480.0, -270.0)",0,2312.9919999919366,1732.3972999874968,True,False
16,2,221.50922110001557,circle,"(-480.0, -270.0)",0,2331.0728000069503,1750.4781000025105,True,False
16,2,221.5255596000061,circle,"(-480.0, -270.0)",0,2347.411299997475,1766.8165999930352,True,False
16,2,221.5415265999909,circle,"(-480.0, -270.0)",0,2363.378299982287,1782.7835999778472,True,False
16,2,221.5581472000049,circle,"(-480.0, -270.0)",0,2379.9988999962807,1799.4041999918409,True,False
16,2,223.25732020000578,cross,"(480.0, -270.0)",264.88550001522526,4079.1718999971636,3498.5771999927238,False,True
16,3,223.52482019999297,cross,"(480.0, -270.0)",264.2316999845207,4346.671899984358,267.4999999871943,True,False
16,3,223.54455910000252,cross,"(480.0, -270.0)",0,4366.410799993901,287.238899996737,True,False
16,3,223.5574723999889,cross,"(480.0, -270.0)",0,4379.324099980295,300.15219998313114,True,False
16,3,223.57385079999221,cross,"(480.0, -270.0)",0,4395.702499983599,316.53059998643585,True,False
16,3,223.5903718000045,cross,"(480.0, -270.0)",0,4412.223499995889,333.0515999987256,True,False
16,3,223.60753919999115,cross,"(480.0, -270.0)",0,4429.390899982536,350.21899998537265,True,False
16,3,223.62452300000587,cross,"(480.0, -270.0)",0,4446.37469999725,367.2028000000864,True,False
16,3,223.6416573000024,cross,"(480.0, -270.0)",0,4463.508999993792,384.33709999662824,True,False
16,3,223.65784639999038,cross,"(480.0, -270.0)",0,4479.698099981761,400.52619998459704,True,False
16,3,223.67409779998707,cross,"(480.0, -270.0)",0,4495.949499978451,416.7775999812875,True,False
16,3,223.6911742000084,cross,"(480.0, -270.0)",0,4513.025899999775,433.85400000261143,True,False
16,3,223.70766499999445,cross,"(480.0, -270.0)",0,4529.516699985834,450.3447999886703,True,False
16,3,223.7239930999931,cross,"(480.0, -270.0)",0,4545.844799984479,466.67289998731576,True,False
16,3,223.7406886999961,cross,"(480.0, -270.0)",0,4562.540399987483,483.36849999031983,True,False
16,3,223.75746510000317,cross,"(480.0, -270.0)",0,4579.316799994558,500.14489999739453,True,False
16,3,223.774081200012,cross,"(480.0, -270.0)",0,4595.93290000339,516.7610000062268,True,False
16,3,223.79073589999462,cross,"(480.0, -270.0)",0,4612.587599986,533.4156999888364,True,False
16,3,223.80751990000135,cross,"(480.0, -270.0)",0,4629.371599992737,550.1996999955736,True,False
16,3,223.82426049999776,cross,"(480.0, -270.0)",0,4646.1121999891475,566.9402999919839,True,False
16,3,223.84072400000878,cross,"(480.0, -270.0)",0,4662.575700000161,583.4038000029977,True,False
16,3,223.85719129999052,cross,"(480.0, -270.0)",0,4679.0429999819025,599.871099984739,True,False
16,3,223.8741052999976,cross,"(480.0, -270.0)",0,4695.956999988994,616.7850999918301,True,False
16,3,223.89106880000327,cross,"(480.0, -270.0)",0,4712.920499994652,633.7485999974888,True,False
16,3,223.90766279998934,cross,"(480.0, -270.0)",0,4729.5144999807235,650.3425999835599,True,False
16,3,223.9239321000059,cross,"(480.0, -270.0)",0,4745.783799997298,666.6119000001345,True,False
16,3,223.94083050001063,cross,"(480.0, -270.0)",0,4762.682200002018,683.5103000048548,True,False
16,3,223.95752019999782,cross,"(480.0, -270.0)",0,4779.371899989201,700.1999999920372,True,False
16,3,223.97423699998762,cross,"(480.0, -270.0)",0,4796.088699979009,716.9167999818455,True,False
16,3,223.9908568999963,cross,"(480.0, -270.0)",0,4812.708599987673,733.5366999905091,True,False
16,3,224.00766000000294,cross,"(480.0, -270.0)",0,4829.5116999943275,750.3397999971639,True,False
16,3,224.02351170001202,cross,"(480.0, -270.0)",0,4845.363400003407,766.1915000062436,True,False
16,3,224.04038479999872,cross,"(480.0, -270.0)",0,4862.236499990104,783.0645999929402,True,False
16,3,224.05732530000387,cross,"(480.0, -270.0)",0,4879.176999995252,800.0050999980886,True,False
16,3,224.07406469999114,cross,"(480.0, -270.0)",0,4895.916399982525,816.7444999853615,True,False
16,3,224.09074549999787,cross,"(480.0, -270.0)",0,4912.59719998925,833.4252999920864,True,False
16,3,224.1074159000127,cross,"(480.0, -270.0)",0,4929.267600004096,850.095700006932,True,False
16,3,224.1241461999889,cross,"(480.0, -270.0)",0,4945.997899980284,866.8259999831207,True,False
16,3,224.14064140000846,cross,"(480.0, -270.0)",0,4962.493099999847,883.3212000026833,True,False
16,3,224.15746750001563,cross,"(480.0, -270.0)",0,4979.319200007012,900.1473000098485,True,False
16,3,224.1738689999911,cross,"(480.0, -270.0)",0,4995.720699982485,916.5487999853212,True,False
16,3,224.19073500001105,cross,"(480.0, -270.0)",0,5012.58670000243,933.4148000052664,True,False
16,3,224.20758710001246,cross,"(480.0, -270.0)",0,5029.438800003845,950.2669000066817,True,False
16,3,224.22430679999525,cross,"(480.0, -270.0)",0,5046.158499986632,966.9865999894682,True,False
16,3,224.24080989998765,cross,"(480.0, -270.0)",0,5062.661599979037,983.4896999818739,True,False
16,3,224.25742889998946,cross,"(480.0, -270.0)",0,5079.280599980848,1000.1086999836843,True,False
16,3,224.27387350000208,cross,"(480.0, -270.0)",0,5095.725199993467,1016.5532999963034,True,False
16,3,224.28997260000324,cross,"(480.0, -270.0)",0,5111.824299994623,1032.6523999974597,True,False
16,3,224.30709690001095,cross,"(480.0, -270.0)",0,5128.948600002332,1049.776700005168,True,False
16,3,224.32356409999193,cross,"(480.0, -270.0)",0,5145.415799983311,1066.2438999861479,True,False
16,3,224.3409115000104,cross,"(480.0, -270.0)",0,5162.763200001791,1083.5913000046276,True,False
16,3,224.35731110000052,cross,"(480.0, -270.0)",0,5179.1627999919,1099.9908999947365,True,False
16,3,224.37425600001006,cross,"(480.0, -270.0)",0,5196.107700001448,1116.9358000042848,True,False
16,3,224.39104740001494,cross,"(480.0, -270.0)",0,5212.899100006325,1133.7272000091616,True,False
16,3,224.4073907000129,cross,"(480.0, -270.0)",0,5229.242400004296,1150.070500007132,True,False
16,3,224.42388570000185,cross,"(480.0, -270.0)",0,5245.7373999932315,1166.565499996068,True,False
16,3,224.44093620000058,cross,"(480.0, -270.0)",0,5262.787899991963,1183.6159999947995,True,False
16,3,224.45737540000118,cross,"(480.0, -270.0)",0,5279.227099992568,1200.055199995404,True,False
16,3,224.47385229999782,cross,"(480.0, -270.0)",0,5295.7039999892,1216.5320999920368,True,False
16,3,224.4904472999915,cross,"(480.0, -270.0)",0,5312.298999982886,1233.1270999857225,True,False
16,3,224.50725970001076,cross,"(480.0, -270.0)",0,5329.111400002148,1249.9395000049844,True,False
16,3,224.52396029999363,cross,"(480.0, -270.0)",0,5345.811999985017,1266.6400999878533,True,False
16,3,224.5404179999896,cross,"(480.0, -270.0)",0,5362.2696999809705,1283.097799983807,True,False
16,3,224.55675819999306,cross,"(480.0, -270.0)",0,5378.60989998444,1299.4379999872763,True,False
16,3,224.57397830000264,cross,"(480.0, -270.0)",0,5395.829999994021,1316.6580999968573,True,False
16,3,224.59064670000225,cross,"(480.0, -270.0)",0,5412.498399993638,1333.326499996474,True,False
16,3,224.60744039999554,cross,"(480.0, -270.0)",0,5429.292099986924,1350.1201999897603,True,False
16,3,224.62436159999925,cross,"(480.0, -270.0)",0,5446.213299990632,1367.041399993468,True,False
16,3,224.6407351999951,cross,"(480.0, -270.0)",0,5462.586899986491,1383.414999989327,True,False
16,3,224.65741939999862,cross,"(480.0, -270.0)",0,5479.271099990001,1400.0991999928374,True,False
16,3,224.67418090000865,cross,"(480.0, -270.0)",0,5496.032600000035,1416.8607000028715,True,False
16,3,224.6908259000047,cross,"(480.0, -270.0)",0,5512.6775999960955,1433.505699998932,True,False
16,3,224.70726470000227,cross,"(480.0, -270.0)",0,5529.116399993654,1449.9444999964908,True,False
16,3,224.72376870000153,cross,"(480.0, -270.0)",0,5545.620399992913,1466.4484999957494,True,False
16,3,224.7407230999961,cross,"(480.0, -270.0)",0,5562.5747999874875,1483.402899990324,True,False
16,3,224.75730890000705,cross,"(480.0, -270.0)",0,5579.160599998431,1499.9887000012677,True,False
16,3,224.77407869999297,cross,"(480.0, -270.0)",0,5595.930399984354,1516.7584999871906,True,False
16,3,224.7902136000048,cross,"(480.0, -270.0)",0,5612.065299996175,1532.8933999990113,True,False
16,3,224.8073860000004,cross,"(480.0, -270.0)",0,5629.237699991791,1550.065799994627,True,False
16,3,224.82378219999373,cross,"(480.0, -270.0)",0,5645.633899985114,1566.4619999879505,True,False
16,3,224.84058220000588,cross,"(480.0, -270.0)",0,5662.433899997268,1583.2620000001043,True,False
16,3,224.85720649998984,cross,"(480.0, -270.0)",0,5679.0581999812275,1599.886299984064,True,False
16,3,224.87404910000623,cross,"(480.0, -270.0)",0,5695.900799997617,1616.728900000453,True,False
16,3,224.8908395000035,cross,"(480.0, -270.0)",0,5712.691199994879,1633.5192999977153,True,False
16,3,224.90734249999514,cross,"(480.0, -270.0)",0,5729.194199986523,1650.0222999893595,True,False
16,3,224.92401200000313,cross,"(480.0, -270.0)",0,5745.863699994516,1666.691799997352,True,False
16,3,224.94080869999016,cross,"(480.0, -270.0)",0,5762.660399981542,1683.488499984378,True,False
16,3,224.9573068000027,cross,"(480.0, -270.0)",0,5779.158499994082,1699.9865999969188,True,False
16,3,224.97414539998863,cross,"(480.0, -270.0)",0,5795.997099980013,1716.8251999828499,True,False
16,3,224.99017840001034,cross,"(480.0, -270.0)",0,5812.030100001721,1732.8582000045571,True,False
16,3,225.0074037000013,cross,"(480.0, -270.0)",0,5829.2553999926895,1750.083499995526,True,False
16,3,225.02380339999218,cross,"(480.0, -270.0)",0,5845.65509998356,1766.4831999863964,True,False
16,3,225.04063550001592,cross,"(480.0, -270.0)",0,5862.487200007308,1783.3153000101447,True,False
16,3,226.73924279998755,circle,"(-480.0, -270.0)",250.11569997877814,7561.094499978935,3481.922599981772,False,True
16,4,229.57172129998798,cross,"(480.0, -270.0)",266.55629999004304,10393.57299997937,2832.478500000434,False,True
