trial_num,selection_num,timestamp,shape,position,fixation_duration_ms,rt_from_trial_start_ms,rt_from_previous_selection_ms,queued_selection,was_executed
13,1,1274.593704800005,star,"(-480.0, 270.0)",251.64740000036545,863.7043000053382,863.7043000053382,False,True
13,2,1275.4275643,star,"(-480.0, 270.0)",250.6998000026215,1697.5638000003528,833.8594999950146,True,False
13,2,1275.445774000007,star,"(-480.0, 270.0)",0,1715.7735000073444,852.0692000020063,True,False
13,2,1275.4603188000037,star,"(-480.0, 270.0)",0,1730.3183000040008,866.6139999986626,True,False
13,2,1275.4764934999985,star,"(-480.0, 270.0)",0,1746.4929999987362,882.788699993398,True,False
13,2,1275.4962865999987,star,"(-480.0, 270.0)",0,1766.286099998979,902.5817999936407,True,False
13,2,1275.5099597999942,star,"(-480.0, 270.0)",0,1779.9592999945162,916.254999989178,True,False
13,2,1275.5271842000075,star,"(-480.0, 270.0)",0,1797.1837000077358,933.4794000023976,True,False
13,2,1275.543820100007,star,"(-480.0, 270.0)",0,1813.819600007264,950.1153000019258,True,False
13,2,1275.5604123999947,star,"(-480.0, 270.0)",0,1830.4118999949424,966.7075999896042,True,False
13,2,1275.5755953000044,star,"(-480.0, 270.0)",0,1845.5948000046192,981.890499999281,True,False
13,2,1275.5936213999958,star,"(-480.0, 270.0)",0,1863.6208999960218,999.9165999906836,True,False
13,2,1275.6097193000023,star,"(-480.0, 270.0)",0,1879.7188000025926,1016.0144999972545,True,False
13,2,1275.6271546000062,star,"(-480.0, 270.0)",0,1897.1541000064462,1033.449800001108,True,False
13,2,1275.6430706999963,star,"(-480.0, 270.0)",0,1913.0701999965822,1049.365899991244,True,False
13,2,1275.6604208000062,star,"(-480.0, 270.0)",0,1930.4203000065172,1066.716000001179,True,False
13,2,1275.6763920999947,star,"(-480.0, 270.0)",0,1946.3915999949677,1082.6872999896295,True,False
13,2,1275.6934103999956,star,"(-480.0, 270.0)",0,1963.409899995895,1099.705599990557,True,False
13,2,1275.7091896000056,star,"(-480.0, 270.0)",0,1979.1891000058968,1115.4848000005586,True,False
13,2,1275.726894899999,star,"(-480.0, 270.0)",0,1996.8943999992916,1133.1900999939535,True,False
13,2,1275.7435127000062,star,"(-480.0, 270.0)",0,2013.5122000065167,1149.8079000011785,True,False
13,2,1275.7602845000074,star,"(-480.0, 270.0)",0,2030.2840000076685,1166.5797000023304,True,False
13,2,1275.776005199994,star,"(-480.0, 270.0)",0,2046.0046999942278,1182.3003999888897,True,False
13,2,1275.793879799996,star,"(-480.0, 270.0)",0,2063.879299996188,1200.1749999908498,True,False
13,2,1275.8099653999961,star,"(-480.0, 270.0)",0,2079.964899996412,1216.2605999910738,True,False
13,2,1275.8268469000031,star,"(-480.0, 270.0)",0,2096.8464000034146,1233.1420999980764,True,False
13,2,1275.8428497999994,star,"(-480.0, 270.0)",0,2112.8492999996524,1249.1449999943143,True,False
13,2,1275.860611199998,star,"(-480.0, 270.0)",0,2130.610699998215,1266.9063999928767,True,False
13,2,1275.876632600004,star,"(-480.0, 270.0)",0,2146.6321000043536,1282.9277999990154,True,False
13,2,1275.8935804000066,star,"(-480.0, 270.0)",0,2163.57990000688,1299.875600001542,True,False
13,2,1275.9099433999945,star,"(-480.0, 270.0)",0,2179.942899994785,1316.2385999894468,True,False
13,2,1275.9269642,star,"(-480.0, 270.0)",0,2196.9637000001967,1333.2593999948585,True,False
13,2,1275.9434660999977,star,"(-480.0, 270.0)",0,2213.465599998017,1349.7612999926787,True,False
13,2,1275.960357799995,star,"(-480.0, 270.0)",0,2230.357299995376,1366.6529999900376,True,False
13,2,1275.976748999994,star,"(-480.0, 270.0)",0,2246.7484999942826,1383.0441999889445,True,False
13,2,1275.9936747000029,star,"(-480.0, 270.0)",0,2263.674200003152,1399.9698999978136,True,False
13,2,1276.0100813000026,star,"(-480.0, 270.0)",0,2280.0808000029065,1416.3764999975683,True,False
13,2,1276.027161799997,star,"(-480.0, 270.0)",0,2297.161299997242,1433.456999991904,True,False
13,2,1276.0442578999937,star,"(-480.0, 270.0)",0,2314.2573999939486,1450.5530999886105,True,False
13,2,1276.060271299997,star,"(-480.0, 270.0)",0,2330.270799997379,1466.566499992041,True,False
13,2,1276.0771436000068,star,"(-480.0, 270.0)",0,2347.143100007088,1483.4388000017498,True,False
13,2,1276.093461700002,star,"(-480.0, 270.0)",0,2363.461200002348,1499.75689999701,True,False
13,2,1276.1099199000018,star,"(-480.0, 270.0)",0,2379.919400002109,1516.2150999967707,True,False
13,2,1276.1274177000014,star,"(-480.0, 270.0)",0,2397.417200001655,1533.712899996317,True,False
13,2,1276.143344199998,star,"(-480.0, 270.0)",0,2413.3436999982223,1549.6393999928841,True,False
13,2,1276.1603529999993,star,"(-480.0, 270.0)",0,2430.3524999995716,1566.6481999942334,True,False
13,2,1276.1761299000063,star,"(-480.0, 270.0)",0,2446.129400006612,1582.4251000012737,True,False
13,2,1276.1937056000024,star,"(-480.0, 270.0)",0,2463.7051000026986,1600.0007999973604,True,False
13,2,1276.2088713999983,star,"(-480.0, 270.0)",0,2478.870899998583,1615.1665999932447,True,False
13,2,1276.2257678000024,star,"(-480.0, 270.0)",0,2495.767300002626,1632.062999997288,True,False
13,2,1276.2418617999938,star,"(-480.0, 270.0)",0,2511.8612999940524,1648.1569999887142,True,False
13,2,1276.2603677000006,star,"(-480.0, 270.0)",0,2530.36720000091,1666.662899995572,True,False
13,2,1276.2761596000055,star,"(-480.0, 270.0)",0,2546.1591000057524,1682.4548000004143,True,False
13,2,1276.2940361999936,star,"(-480.0, 270.0)",0,2564.0356999938376,1700.3313999884995,True,False
13,2,1276.3097976999998,star,"(-480.0, 270.0)",0,2579.79720000003,1716.0928999946918,True,False
13,2,1276.3267132000037,star,"(-480.0, 270.0)",0,2596.712700003991,1733.0083999986527,True,False
13,2,1276.342831899994,star,"(-480.0, 270.0)",0,2612.8313999943202,1749.127099988982,True,False
13,2,1276.3600600000063,star,"(-480.0, 270.0)",0,2630.0595000066096,1766.3552000012714,True,False
13,2,1276.3764182000014,star,"(-480.0, 270.0)",0,2646.4177000016207,1782.7133999962825,True,False
13,2,1277.9923491999944,cross,"(480.0, -270.0)",266.3404999912018,4262.348699994618,3398.64439998928,False,True
13,3,1278.793235300007,cross,"(480.0, -270.0)",250.82440000551287,5063.234800007194,800.8861000125762,True,False
13,3,1278.8106974999973,cross,"(480.0, -270.0)",0,5080.696999997599,818.348300002981,True,False
13,3,1278.8255444999959,cross,"(480.0, -270.0)",0,5095.543999996153,833.1953000015346,True,False
13,3,1278.8418526000023,cross,"(480.0, -270.0)",0,5111.852100002579,849.5034000079613,True,False
13,3,1278.858676200005,cross,"(480.0, -270.0)",0,5128.67570000526,866.3270000106422,True,False
13,3,1278.8755525000015,cross,"(480.0, -270.0)",0,5145.552000001771,883.2033000071533,True,False
13,3,1278.8925602999952,cross,"(480.0, -270.0)",0,5162.559799995506,900.2111000008881,True,False
13,3,1278.9085083999962,cross,"(480.0, -270.0)",0,5178.507899996475,916.1592000018572,True,False
13,3,1278.925998000006,cross,"(480.0, -270.0)",0,5195.997500006342,933.6488000117242,True,False
13,3,1278.9431817000004,cross,"(480.0, -270.0)",0,5213.18120000069,950.8325000060722,True,False
13,3,1278.9589930999937,cross,"(480.0, -270.0)",0,5228.992599993944,966.6438999993261,True,False
13,3,1278.975333399998,cross,"(480.0, -270.0)",0,5245.332899998175,982.9842000035569,True,False
13,3,1278.9934476000053,cross,"(480.0, -270.0)",0,5263.447100005578,1001.0984000109602,True,False
13,3,1279.0090424999944,cross,"(480.0, -270.0)",0,5279.041999994661,1016.6933000000427,True,False
13,3,1279.0264980000065,cross,"(480.0, -270.0)",0,5296.497500006808,1034.14880001219,True,False
13,3,1279.0420678999944,cross,"(480.0, -270.0)",0,5312.067399994703,1049.718700000085,True,False
13,3,1279.0629680999991,cross,"(480.0, -270.0)",0,5332.967599999392,1070.6189000047743,True,False
13,3,1279.0756047000032,cross,"(480.0, -270.0)",0,5345.604200003436,1083.2555000088178,True,False
13,3,1279.092398199995,cross,"(480.0, -270.0)",0,5362.397699995199,1100.0490000005811,True,False
13,3,1279.1082060000044,cross,"(480.0, -270.0)",0,5378.205500004697,1115.8568000100786,True,False
13,3,1279.1258215999987,cross,"(480.0, -270.0)",0,5395.8210999990115,1133.4724000043934,True,False
13,3,1279.142349200003,cross,"(480.0, -270.0)",0,5412.348700003349,1150.0000000087311,True,False
13,3,1279.1587005000038,cross,"(480.0, -270.0)",0,5428.700000004028,1166.35130000941,True,False
13,3,1279.1756139000063,cross,"(480.0, -270.0)",0,5445.61340000655,1183.2647000119323,True,False
13,3,1279.1928361000028,cross,"(480.0, -270.0)",0,5462.835600003018,1200.4869000084,True,False
13,3,1279.2088700000022,cross,"(480.0, -270.0)",0,5478.8695000024745,1216.5208000078565,True,False
13,3,1279.2258241999953,cross,"(480.0, -270.0)",0,5495.823699995526,1233.475000000908,True,False
13,3,1279.2433214000048,cross,"(480.0, -270.0)",0,5513.320900005056,1250.9722000104375,True,False
13,3,1279.2608060000057,cross,"(480.0, -270.0)",0,5530.805500005954,1268.4568000113359,True,False
13,3,1279.275864700001,cross,"(480.0, -270.0)",0,5545.864200001233,1283.5155000066152,True,False
13,3,1279.2934520999988,cross,"(480.0, -270.0)",0,5563.451599999098,1301.10290000448,True,False
13,3,1279.3086547999992,cross,"(480.0, -270.0)",0,5578.654299999471,1316.3056000048527,True,False
13,3,1279.325740100001,cross,"(480.0, -270.0)",0,5595.739600001252,1333.3909000066342,True,False
13,3,1279.3420558999933,cross,"(480.0, -270.0)",0,5612.055399993551,1349.706699998933,True,False
13,3,1279.3589318000013,cross,"(480.0, -270.0)",0,5628.931300001568,1366.58260000695,True,False
13,3,1279.375071100003,cross,"(480.0, -270.0)",0,5645.070600003237,1382.7219000086188,True,False
13,3,1279.3922973000008,cross,"(480.0, -270.0)",0,5662.296800001059,1399.9481000064407,True,False
13,3,1279.4084601000068,cross,"(480.0, -270.0)",0,5678.459600007045,1416.110900012427,True,False
13,3,1279.4255563000042,cross,"(480.0, -270.0)",0,5695.555800004513,1433.207100009895,True,False
13,3,1279.4417334000027,cross,"(480.0, -270.0)",0,5711.732900002971,1449.3842000083532,True,False
13,3,1279.458763600007,cross,"(480.0, -270.0)",0,5728.7631000072,1466.4144000125816,True,False
13,3,1279.4751753000019,cross,"(480.0, -270.0)",0,5745.1748000021325,1482.8261000075145,True,False
13,3,1279.4925852000015,cross,"(480.0, -270.0)",0,5762.584700001753,1500.2360000071349,True,False
13,3,1279.5113437999971,cross,"(480.0, -270.0)",0,5781.343299997388,1518.9946000027703,True,False
13,3,1279.5258062000066,cross,"(480.0, -270.0)",0,5795.805700006895,1533.4570000122767,True,False
13,3,1279.542321300003,cross,"(480.0, -270.0)",0,5812.320800003363,1549.9721000087447,True,False
13,3,1279.5589678999968,cross,"(480.0, -270.0)",0,5828.967399997055,1566.6187000024365,True,False
13,3,1279.575514199998,cross,"(480.0, -270.0)",0,5845.513699998264,1583.1650000036461,True,False
13,3,1279.592779300001,cross,"(480.0, -270.0)",0,5862.7788000012515,1600.4301000066334,True,False
13,3,1279.608372799994,cross,"(480.0, -270.0)",0,5878.372299994226,1616.0235999996075,True,False
13,3,1279.6254562999966,cross,"(480.0, -270.0)",0,5895.455799996853,1633.1071000022348,True,False
13,3,1279.641439500003,cross,"(480.0, -270.0)",0,5911.439000003156,1649.0903000085382,True,False
13,3,1279.6596332000045,cross,"(480.0, -270.0)",0,5929.632700004731,1667.2840000101132,True,False
13,3,1279.6751356000022,cross,"(480.0, -270.0)",0,5945.135100002517,1682.786400007899,True,False
13,3,1279.692830400003,cross,"(480.0, -270.0)",0,5962.829900003271,1700.481200008653,True,False
13,3,1279.7083590999973,cross,"(480.0, -270.0)",0,5978.358599997591,1716.0099000029732,True,False
13,3,1279.7255304999999,cross,"(480.0, -270.0)",0,5995.530000000144,1733.1813000055263,True,False
13,3,1279.7416866999993,cross,"(480.0, -270.0)",0,6011.686199999531,1749.3375000049127,True,False
13,3,1279.7587300000014,cross,"(480.0, -270.0)",0,6028.729500001646,1766.3808000070276,True,False
13,3,1279.775503900004,cross,"(480.0, -270.0)",0,6045.503400004236,1783.154700009618,True,False
13,3,1283.124521100006,star,"(-480.0, 270.0)",250.1831000117818,9394.520600006217,5132.171900011599,False,True
13,4,1287.3891780999984,circle,"(-480.0, -270.0)",265.7403000048362,13659.177599998657,4264.6569999924395,False,True
14,1,1292.9040409000008,circle,"(-480.0, -270.0)",250.06730000313837,1660.7080999965547,1660.7080999965547,False,True
14,2,1293.170572300005,circle,"(-480.0, -270.0)",262.764099999913,1927.2395000007236,266.531400004169,True,False
14,2,1293.191802500005,circle,"(-480.0, -270.0)",0,1948.4697000007145,287.76160000415985,True,False
14,2,1293.204224400004,circle,"(-480.0, -270.0)",0,1960.8915999997407,300.18350000318605,True,False
14,2,1293.2208895000076,circle,"(-480.0, -270.0)",0,1977.5567000033334,316.8486000067787,True,False
14,2,1293.2367821999942,circle,"(-480.0, -270.0)",0,1993.4493999899132,332.74129999335855,True,False
14,2,1293.2546911999962,circle,"(-480.0, -270.0)",0,2011.3583999918774,350.6502999953227,True,False
14,2,1293.2702789000032,circle,"(-480.0, -270.0)",0,2026.946099998895,366.2380000023404,True,False
14,2,1293.2876685999945,circle,"(-480.0, -270.0)",0,2044.3357999902219,383.6276999936672,True,False
14,2,1293.3029796000046,circle,"(-480.0, -270.0)",0,2059.646800000337,398.9387000037823,True,False
14,2,1293.3211763,circle,"(-480.0, -270.0)",0,2077.8434999956517,417.135399999097,True,False
14,2,1293.3371162999974,circle,"(-480.0, -270.0)",0,2093.783499993151,433.0753999965964,True,False
14,2,1293.354371399997,circle,"(-480.0, -270.0)",0,2111.038599992753,450.33049999619834,True,False
14,2,1293.370226500003,circle,"(-480.0, -270.0)",0,2126.893699998618,466.18560000206344,True,False
14,2,1293.3876412999962,circle,"(-480.0, -270.0)",0,2144.3084999918938,483.6003999953391,True,False
14,2,1293.4034033000062,circle,"(-480.0, -270.0)",0,2160.0705000018934,499.3624000053387,True,False
14,2,1293.4205018000066,circle,"(-480.0, -270.0)",0,2177.1690000023227,516.460900005768,True,False
14,2,1293.436580900001,circle,"(-480.0, -270.0)",0,2193.2480999967083,532.5400000001537,True,False
14,2,1293.4539272999973,circle,"(-480.0, -270.0)",0,2210.5944999930216,549.8863999964669,True,False
14,2,1293.469980199996,circle,"(-480.0, -270.0)",0,2226.6473999916343,565.9392999950796,True,False
14,2,1293.4872742000007,circle,"(-480.0, -270.0)",0,2243.9413999964017,583.2332999998471,True,False
14,2,1293.5035407999967,circle,"(-480.0, -270.0)",0,2260.207999992417,599.4998999958625,True,False
14,2,1293.5208000999992,circle,"(-480.0, -270.0)",0,2277.467299994896,616.7591999983415,True,False
14,2,1293.5365769000055,circle,"(-480.0, -270.0)",0,2293.244100001175,632.5360000046203,True,False
14,2,1293.5544744000072,circle,"(-480.0, -270.0)",0,2311.141600002884,650.4335000063293,True,False
14,2,1293.570749999999,circle,"(-480.0, -270.0)",0,2327.41719999467,666.7090999981156,True,False
14,2,1293.5874993000034,circle,"(-480.0, -270.0)",0,2344.166499999119,683.4584000025643,True,False
14,2,1293.6036023000052,circle,"(-480.0, -270.0)",0,2360.269500000868,699.5614000043133,True,False
14,2,1293.6208388999949,circle,"(-480.0, -270.0)",0,2377.506099990569,716.7979999940144,True,False
14,2,1293.6368311999977,circle,"(-480.0, -270.0)",0,2393.4983999934047,732.7902999968501,True,False
14,2,1293.6538321999979,circle,"(-480.0, -270.0)",0,2410.4993999935687,749.791299997014,True,False
14,2,1293.6701573000028,circle,"(-480.0, -270.0)",0,2426.8244999984745,766.1164000019198,True,False
14,2,1293.6869927999942,circle,"(-480.0, -270.0)",0,2443.6599999899045,782.9518999933498,True,False
14,2,1293.703258900001,circle,"(-480.0, -270.0)",0,2459.9260999966646,799.2180000001099,True,False
14,2,1293.7206670000014,circle,"(-480.0, -270.0)",0,2477.334199997131,816.6261000005761,True,False
14,2,1293.7362064000044,circle,"(-480.0, -270.0)",0,2492.8736000001663,832.1655000036117,True,False
14,2,1293.7542360999942,circle,"(-480.0, -270.0)",0,2510.9032999898773,850.1951999933226,True,False
14,2,1293.7700258999976,circle,"(-480.0, -270.0)",0,2526.693099993281,865.9849999967264,True,False
14,2,1293.790415399999,circle,"(-480.0, -270.0)",0,2547.08259999461,886.3744999980554,True,False
14,2,1293.8045631999994,circle,"(-480.0, -270.0)",0,2561.230399995111,900.5222999985563,True,False
14,2,1293.820831799996,circle,"(-480.0, -270.0)",0,2577.4989999918034,916.7908999952488,True,False
14,2,1293.8371109,circle,"(-480.0, -270.0)",0,2593.7780999956885,933.0699999991339,True,False
14,2,1293.8541502000007,circle,"(-480.0, -270.0)",0,2610.8173999964492,950.1092999998946,True,False
14,2,1293.8700932000065,circle,"(-480.0, -270.0)",0,2626.76040000224,966.0523000056855,True,False
14,2,1293.8869664999947,circle,"(-480.0, -270.0)",0,2643.6336999904597,982.925599993905,True,False
14,2,1293.9036809999961,circle,"(-480.0, -270.0)",0,2660.3481999918586,999.6400999953039,True,False
14,2,1293.9210849999945,circle,"(-480.0, -270.0)",0,2677.752199990209,1017.0440999936545,True,False
14,2,1293.935802299995,circle,"(-480.0, -270.0)",0,2692.4694999906933,1031.7613999941386,True,False
14,2,1293.953930100004,circle,"(-480.0, -270.0)",0,2710.5972999997903,1049.8892000032356,True,False
14,2,1293.9705940999993,circle,"(-480.0, -270.0)",0,2727.261299995007,1066.5531999984523,True,False
14,2,1293.9872984999965,circle,"(-480.0, -270.0)",0,2743.965699992259,1083.2575999957044,True,False
14,2,1294.0021713000024,circle,"(-480.0, -270.0)",0,2758.8384999980917,1098.130400001537,True,False
14,2,1294.0208276000048,circle,"(-480.0, -270.0)",0,2777.494800000568,1116.7867000040133,True,False
14,2,1294.036277399995,circle,"(-480.0, -270.0)",0,2792.944599990733,1132.2364999941783,True,False
14,2,1294.0538734000002,circle,"(-480.0, -270.0)",0,2810.540599995875,1149.8324999993201,True,False
14,2,1294.0700505999994,circle,"(-480.0, -270.0)",0,2826.7177999950945,1166.0096999985399,True,False
14,2,1294.0874659999972,circle,"(-480.0, -270.0)",0,2844.133199992939,1183.4250999963842,True,False
14,2,1294.1031184000021,circle,"(-480.0, -270.0)",0,2859.785599997849,1199.0775000012945,True,False
14,2,1294.1207111999975,circle,"(-480.0, -270.0)",0,2877.3783999931766,1216.670299996622,True,False
14,2,1294.1364978000056,circle,"(-480.0, -270.0)",0,2893.165000001318,1232.4569000047632,True,False
14,2,1294.1541266999993,circle,"(-480.0, -270.0)",0,2910.793899995042,1250.0857999984873,True,False
14,2,1294.1695590000018,circle,"(-480.0, -270.0)",0,2926.2261999974726,1265.518100000918,True,False
14,2,1294.1869977000024,circle,"(-480.0, -270.0)",0,2943.6648999981117,1282.956800001557,True,False
14,2,1294.202542900006,circle,"(-480.0, -270.0)",0,2959.2101000016555,1298.5020000051009,True,False
14,2,1294.2204373999994,circle,"(-480.0, -270.0)",0,2977.104599995073,1316.3964999985183,True,False
14,2,1294.2358825999981,circle,"(-480.0, -270.0)",0,2992.549799993867,1331.8416999973124,True,False
14,2,1294.253390400001,circle,"(-480.0, -270.0)",0,3010.0575999967987,1349.349500000244,True,False
14,2,1294.2686828000005,circle,"(-480.0, -270.0)",0,3025.3499999962514,1364.6418999996968,True,False
14,2,1294.2877497000009,circle,"(-480.0, -270.0)",0,3044.416899996577,1383.7088000000222,True,False
14,2,1294.3025355999998,circle,"(-480.0, -270.0)",0,3059.2027999955462,1398.4946999989916,True,False
14,2,1294.3201255000022,circle,"(-480.0, -270.0)",0,3076.7926999978954,1416.0846000013407,True,False
14,2,1294.3363157999993,circle,"(-480.0, -270.0)",0,3092.9829999950016,1432.274899998447,True,False
14,2,1294.3535492999945,circle,"(-480.0, -270.0)",0,3110.2164999902016,1449.508399993647,True,False
14,2,1294.368937399995,circle,"(-480.0, -270.0)",0,3125.6045999907656,1464.896499994211,True,False
14,2,1294.3871846999973,circle,"(-480.0, -270.0)",0,3143.851899993024,1483.1437999964692,True,False
14,2,1294.402102699998,circle,"(-480.0, -270.0)",0,3158.7698999937857,1498.061799997231,True,False
14,2,1294.4205889000004,circle,"(-480.0, -270.0)",0,3177.256099996157,1516.5479999996023,True,False
14,2,1294.4358090000023,circle,"(-480.0, -270.0)",0,3192.4761999980547,1531.7681000015,True,False
14,2,1294.453149199995,circle,"(-480.0, -270.0)",0,3209.816399990814,1549.1082999942591,True,False
14,2,1294.4685465999937,circle,"(-480.0, -270.0)",0,3225.213799989433,1564.5056999928784,True,False
14,2,1294.4870126000023,circle,"(-480.0, -270.0)",0,3243.6797999980627,1582.971700001508,True,False
14,2,1294.5028082000063,circle,"(-480.0, -270.0)",0,3259.475400001975,1598.76730000542,True,False
14,2,1294.5205215000024,circle,"(-480.0, -270.0)",0,3277.188699998078,1616.4806000015233,True,False
14,2,1294.5364216000016,circle,"(-480.0, -270.0)",0,3293.0887999973493,1632.3807000007946,True,False
14,2,1294.5535965000017,circle,"(-480.0, -270.0)",0,3310.2636999974493,1649.5556000008946,True,False
14,2,1294.5693438000017,circle,"(-480.0, -270.0)",0,3326.0109999973793,1665.3029000008246,True,False
14,2,1294.5870398999978,circle,"(-480.0, -270.0)",0,3343.7070999934804,1682.9989999969257,True,False
14,2,1294.6008580000052,circle,"(-480.0, -270.0)",0,3357.525200000964,1696.8171000044094,True,False
14,2,1294.6205535000045,circle,"(-480.0, -270.0)",0,3377.22070000018,1716.5126000036253,True,False
14,2,1294.6355556000053,circle,"(-480.0, -270.0)",0,3392.2228000010364,1731.5147000044817,True,False
14,2,1294.6535249000008,circle,"(-480.0, -270.0)",0,3410.192099996493,1749.4839999999385,True,False
14,2,1294.6690325999953,circle,"(-480.0, -270.0)",0,3425.69979999098,1764.9916999944253,True,False
14,2,1294.6858330999967,circle,"(-480.0, -270.0)",0,3442.500299992389,1781.7921999958344,True,False
14,2,1297.9833132000058,star,"(-480.0, 270.0)",250.41259999852628,6739.980400001514,5079.272300004959,False,True
14,3,1298.2513345000043,star,"(-480.0, 270.0)",265.07010000932496,7008.0017000000225,268.02129999850877,True,False
14,3,1298.2718522000068,star,"(-480.0, 270.0)",0,7028.519400002551,288.5390000010375,True,False
14,3,1298.2850144999975,star,"(-480.0, 270.0)",0,7041.681699993205,301.7012999916915,True,False
14,3,1298.3021200999938,star,"(-480.0, 270.0)",0,7058.78729998949,318.80689998797607,True,False
14,3,1298.3176495999942,star,"(-480.0, 270.0)",0,7074.3167999899015,334.3363999883877,True,False
14,3,1298.3351363999973,star,"(-480.0, 270.0)",0,7091.803599993,351.82319999148604,True,False
14,3,1298.3513019999955,star,"(-480.0, 270.0)",0,7107.969199991203,367.98879998968914,True,False
14,3,1298.3685314000031,star,"(-480.0, 270.0)",0,7125.198599998839,385.2181999973254,True,False
14,3,1298.3844296000025,star,"(-480.0, 270.0)",0,7141.096799998195,401.11639999668114,True,False
14,3,1298.4020361000003,star,"(-480.0, 270.0)",0,7158.703299995977,418.72289999446366,True,False
14,3,1298.4178912000061,star,"(-480.0, 270.0)",0,7174.5584000018425,434.57800000032876,True,False
14,3,1298.4329140000045,star,"(-480.0, 270.0)",0,7189.581200000248,449.60079999873415,True,False
14,3,1298.4517691000074,star,"(-480.0, 270.0)",0,7208.436300003086,468.45590000157245,True,False
14,3,1298.4679208000016,star,"(-480.0, 270.0)",0,7224.587999997311,484.6075999957975,True,False
14,3,1298.4850896999997,star,"(-480.0, 270.0)",0,7241.75689999538,501.7764999938663,True,False
14,3,1298.500809300007,star,"(-480.0, 270.0)",0,7257.476500002667,517.4961000011535,True,False
14,3,1298.5181838999997,star,"(-480.0, 270.0)",0,7274.851099995431,534.8706999939168,True,False
14,3,1298.5344332999957,star,"(-480.0, 270.0)",0,7291.100499991444,551.1200999899302,True,False
14,3,1298.5520073999942,star,"(-480.0, 270.0)",0,7308.674599989899,568.6941999883857,True,False
14,3,1298.5679122000001,star,"(-480.0, 270.0)",0,7324.579399995855,584.5989999943413,True,False
14,3,1298.5850077000068,star,"(-480.0, 270.0)",0,7341.674900002545,601.694500001031,True,False
14,3,1298.6013408,star,"(-480.0, 270.0)",0,7358.007999995607,618.0275999940932,True,False
14,3,1298.6188301000075,star,"(-480.0, 270.0)",0,7375.49730000319,635.5169000016758,True,False
14,3,1298.6333422000025,star,"(-480.0, 270.0)",0,7390.009399998235,650.0289999967208,True,False
14,3,1298.6516613999993,star,"(-480.0, 270.0)",0,7408.328599995002,668.3481999934884,True,False
14,3,1298.6679059000016,star,"(-480.0, 270.0)",0,7424.57309999736,684.5926999958465,True,False
14,3,1298.6852849999996,star,"(-480.0, 270.0)",0,7441.952199995285,701.9717999937711,True,False
14,3,1298.7016233000031,star,"(-480.0, 270.0)",0,7458.290499998839,718.3100999973249,True,False
14,3,1298.7184114999982,star,"(-480.0, 270.0)",0,7475.078699993901,735.0982999923872,True,False
14,3,1298.7345124999993,star,"(-480.0, 270.0)",0,7491.179699994973,751.1992999934591,True,False
14,3,1298.7519208000012,star,"(-480.0, 270.0)",0,7508.587999996962,768.6075999954483,True,False
14,3,1298.7679672999948,star,"(-480.0, 270.0)",0,7524.634499990498,784.654099988984,True,False
14,3,1298.7854685000057,star,"(-480.0, 270.0)",0,7542.135700001381,802.1552999998676,True,False
14,3,1298.8014060999994,star,"(-480.0, 270.0)",0,7558.073299995158,818.0928999936441,True,False
14,3,1298.8185419999936,star,"(-480.0, 270.0)",0,7575.209199989331,835.2287999878172,True,False
14,3,1298.8344887999992,star,"(-480.0, 270.0)",0,7591.155999994953,851.1755999934394,True,False
14,3,1298.8519969000045,star,"(-480.0, 270.0)",0,7608.664100000169,868.6836999986554,True,False
14,3,1298.867931700006,star,"(-480.0, 270.0)",0,7624.598900001729,884.6185000002151,True,False
14,3,1298.8853471000039,star,"(-480.0, 270.0)",0,7642.014299999573,902.0338999980595,True,False
14,3,1298.9014979000058,star,"(-480.0, 270.0)",0,7658.165100001497,918.1846999999834,True,False
14,3,1298.918321899997,star,"(-480.0, 270.0)",0,7674.989099992672,935.0086999911582,True,False
14,3,1298.9350191999984,star,"(-480.0, 270.0)",0,7691.686399994069,951.705999992555,True,False
14,3,1298.9517646000022,star,"(-480.0, 270.0)",0,7708.431799997925,968.451399996411,True,False
14,3,1298.9676693999936,star,"(-480.0, 270.0)",0,7724.3365999893285,984.3561999878148,True,False
14,3,1298.9850278999947,star,"(-480.0, 270.0)",0,7741.695099990466,1001.7146999889519,True,False
14,3,1299.0011728999962,star,"(-480.0, 270.0)",0,7757.840099991881,1017.8596999903675,True,False
14,3,1299.0188663000008,star,"(-480.0, 270.0)",0,7775.533499996527,1035.5530999950133,True,False
14,3,1299.0350204999995,star,"(-480.0, 270.0)",0,7791.6876999952365,1051.7072999937227,True,False
14,3,1299.0516432000004,star,"(-480.0, 270.0)",0,7808.310399996117,1068.329999994603,True,False
14,3,1299.0674777999957,star,"(-480.0, 270.0)",0,7824.144999991404,1084.1645999898901,True,False
14,3,1299.0851191999973,star,"(-480.0, 270.0)",0,7841.786399992998,1101.805999991484,True,False
14,3,1299.1012050999998,star,"(-480.0, 270.0)",0,7857.872299995506,1117.8918999939924,True,False
14,3,1299.1181883999961,star,"(-480.0, 270.0)",0,7874.855599991861,1134.875199990347,True,False
14,3,1299.134072700006,star,"(-480.0, 270.0)",0,7890.73990000179,1150.7595000002766,True,False
14,3,1299.1518397000036,star,"(-480.0, 270.0)",0,7908.506899999338,1168.5264999978244,True,False
14,3,1299.167633200006,star,"(-480.0, 270.0)",0,7924.300400001812,1184.320000000298,True,False
14,3,1299.1850255000027,star,"(-480.0, 270.0)",0,7941.692699998384,1201.7122999968706,True,False
14,3,1299.2008891000005,star,"(-480.0, 270.0)",0,7957.556299996213,1217.5758999946993,True,False
14,3,1299.2182496000023,star,"(-480.0, 270.0)",0,7974.916799998027,1234.9363999965135,True,False
14,3,1299.2339432000008,star,"(-480.0, 270.0)",0,7990.610399996513,1250.6299999949988,True,False
14,3,1299.248201800001,star,"(-480.0, 270.0)",0,8004.868999996688,1264.8885999951744,True,False
14,3,1299.2679204000015,star,"(-480.0, 270.0)",0,8024.587599997176,1284.607199995662,True,False
14,3,1299.2852879999991,star,"(-480.0, 270.0)",0,8041.955199994845,1301.9747999933315,True,False
14,3,1299.3013208000048,star,"(-480.0, 270.0)",0,8057.988000000478,1318.007599998964,True,False
14,3,1299.3184634000063,star,"(-480.0, 270.0)",0,8075.130600002012,1335.1502000004984,True,False
14,3,1299.3344064999983,star,"(-480.0, 270.0)",0,8091.073699994013,1351.093299992499,True,False
14,3,1299.3515390999964,star,"(-480.0, 270.0)",0,8108.206299992162,1368.225899990648,True,False
14,3,1299.3677919000038,star,"(-480.0, 270.0)",0,8124.459099999513,1384.4786999979988,True,False
14,3,1299.3848767000018,star,"(-480.0, 270.0)",0,8141.543899997487,1401.563499995973,True,False
14,3,1299.4007702999952,star,"(-480.0, 270.0)",0,8157.43749999092,1417.4570999894058,True,False
14,3,1299.4187784999958,star,"(-480.0, 270.0)",0,8175.445699991542,1435.4652999900281,True,False
14,3,1299.4341419999982,star,"(-480.0, 270.0)",0,8190.809199993964,1450.8287999924505,True,False
14,3,1299.451645699999,star,"(-480.0, 270.0)",0,8208.31289999478,1468.3324999932665,True,False
14,3,1299.467467399998,star,"(-480.0, 270.0)",0,8224.134599993704,1484.1541999921901,True,False
14,3,1299.4849130999937,star,"(-480.0, 270.0)",0,8241.580299989437,1501.599899987923,True,False
14,3,1299.500464800003,star,"(-480.0, 270.0)",0,8257.131999998819,1517.1515999973053,True,False
14,3,1299.518076399996,star,"(-480.0, 270.0)",0,8274.74359999178,1534.763199990266,True,False
14,3,1299.5341442000063,star,"(-480.0, 270.0)",0,8290.811400001985,1550.8310000004712,True,False
14,3,1299.5513255999977,star,"(-480.0, 270.0)",0,8307.992799993372,1568.0123999918578,True,False
14,3,1299.5676841999957,star,"(-480.0, 270.0)",0,8324.351399991428,1584.3709999899147,True,False
14,3,1299.5848889000044,star,"(-480.0, 270.0)",0,8341.556100000162,1601.575699998648,True,False
14,3,1299.601637300002,star,"(-480.0, 270.0)",0,8358.304499997757,1618.3240999962436,True,False
14,3,1299.618284199998,star,"(-480.0, 270.0)",0,8374.951399993734,1634.9709999922197,True,False
14,3,1299.6340646000026,star,"(-480.0, 270.0)",0,8390.73179999832,1650.7513999968069,True,False
14,3,1299.6516381999973,star,"(-480.0, 270.0)",0,8408.305399992969,1668.3249999914551,True,False
14,3,1299.6673666999995,star,"(-480.0, 270.0)",0,8424.033899995266,1684.0534999937518,True,False
14,3,1299.6850018999976,star,"(-480.0, 270.0)",0,8441.669099993305,1701.6886999917915,True,False
14,3,1299.7011065999977,star,"(-480.0, 270.0)",0,8457.773799993447,1717.7933999919333,True,False
14,3,1299.7181905000034,star,"(-480.0, 270.0)",0,8474.85769999912,1734.8772999976063,True,False
14,3,1299.733686499996,star,"(-480.0, 270.0)",0,8490.353699991829,1750.373299990315,True,False
14,3,1299.7512162000057,star,"(-480.0, 270.0)",0,8507.883400001447,1767.902999999933,True,False
14,3,1300.7175709000003,circle,"(-480.0, -270.0)",266.3429999956861,9474.238099996,2734.2576999944868,False,True
14,4,1305.3496204999974,cross,"(480.0, -270.0)",251.07199999911245,14106.287699993118,4632.049599997117,False,True
15,1,1310.7486974000058,cross,"(480.0, -270.0)",250.1239999983227,1512.2836000082316,1512.2836000082316,False,True
15,2,1311.5485818000016,cross,"(480.0, -270.0)",266.10019999498036,2312.1680000040215,799.8843999957899,True,False
15,2,1311.5681464999943,cross,"(480.0, -270.0)",0,2331.732699996792,819.4490999885602,True,False
15,2,1311.5817343999952,cross,"(480.0, -270.0)",0,2345.320599997649,833.0369999894174,True,False
15,2,1311.5973903999984,cross,"(480.0, -270.0)",0,2360.9766000008676,848.692999992636,True,False
15,2,1311.6180590000004,cross,"(480.0, -270.0)",0,2381.645200002822,869.3615999945905,True,False
15,2,1311.6318121000077,cross,"(480.0, -270.0)",0,2395.398300010129,883.1147000018973,True,False
15,2,1311.648068399998,cross,"(480.0, -270.0)",0,2411.6546000004746,899.370999992243,True,False
15,2,1311.6648417999968,cross,"(480.0, -270.0)",0,2428.4279999992577,916.1443999910261,True,False
15,2,1311.6819335000037,cross,"(480.0, -270.0)",0,2445.519700006116,933.2360999978846,True,False
15,2,1311.6978913000057,cross,"(480.0, -270.0)",0,2461.4775000081863,949.1938999999547,True,False
15,2,1311.7146912000026,cross,"(480.0, -270.0)",0,2478.2774000050267,965.9937999967951,True,False
15,2,1311.7308773999976,cross,"(480.0, -270.0)",0,2494.4636000000173,982.1799999917857,True,False
15,2,1311.7479236000072,cross,"(480.0, -270.0)",0,2511.5098000096623,999.2262000014307,True,False
15,2,1311.7635556000023,cross,"(480.0, -270.0)",0,2527.141800004756,1014.8581999965245,True,False
15,2,1311.7813459000026,cross,"(480.0, -270.0)",0,2544.9321000050986,1032.648499996867,True,False
15,2,1311.7971096999972,cross,"(480.0, -270.0)",0,2560.6958999997005,1048.412299991469,True,False
15,2,1311.8145575999952,cross,"(480.0, -270.0)",0,2578.1437999976333,1065.8601999894017,True,False
15,2,1311.8306761999993,cross,"(480.0, -270.0)",0,2594.262400001753,1081.9787999935215,True,False
15,2,1311.8480635000014,cross,"(480.0, -270.0)",0,2611.649700003909,1099.3660999956774,True,False
15,2,1311.863832300005,cross,"(480.0, -270.0)",0,2627.4185000074795,1115.1348999992479,True,False
15,2,1311.882316000003,cross,"(480.0, -270.0)",0,2645.9022000053665,1133.6185999971349,True,False
15,2,1311.8973062000005,cross,"(480.0, -270.0)",0,2660.892400002922,1148.6087999946903,True,False
15,2,1311.914976400003,cross,"(480.0, -270.0)",0,2678.5626000055345,1166.278999997303,True,False
15,2,1311.9314113,cross,"(480.0, -270.0)",0,2694.9975000025006,1182.713899994269,True,False
15,2,1311.9484029000014,cross,"(480.0, -270.0)",0,2711.989100003848,1199.7054999956163,True,False
15,2,1311.9641277000046,cross,"(480.0, -270.0)",0,2727.7139000070747,1215.430299998843,True,False
15,2,1311.9813804000005,cross,"(480.0, -270.0)",0,2744.966600002954,1232.6829999947222,True,False
15,2,1311.9972041,cross,"(480.0, -270.0)",0,2760.7903000025544,1248.5066999943228,True,False
15,2,1312.0145835000003,cross,"(480.0, -270.0)",0,2778.1697000027634,1265.8860999945318,True,False
15,2,1312.0305794000014,cross,"(480.0, -270.0)",0,2794.1656000039075,1281.8819999956759,True,False
15,2,1312.0479968,cross,"(480.0, -270.0)",0,2811.583000002429,1299.2993999941973,True,False
15,2,1312.0640455999965,cross,"(480.0, -270.0)",0,2827.631799998926,1315.3481999906944,True,False
15,2,1312.0816806999937,cross,"(480.0, -270.0)",0,2845.2668999962043,1332.9832999879727,True,False
15,2,1312.097073900004,cross,"(480.0, -270.0)",0,2860.6601000064984,1348.3764999982668,True,False
15,2,1312.1146748000028,cross,"(480.0, -270.0)",0,2878.2610000052955,1365.977399997064,True,False
15,2,1312.1306353999971,cross,"(480.0, -270.0)",0,2894.2215999995824,1381.9379999913508,True,False
15,2,1312.1478566000005,cross,"(480.0, -270.0)",0,2911.4428000029875,1399.159199994756,True,False
15,2,1312.1638171999948,cross,"(480.0, -270.0)",0,2927.4033999972744,1415.1197999890428,True,False
15,2,1312.1813168999943,cross,"(480.0, -270.0)",0,2944.9030999967363,1432.6194999885047,True,False
15,2,1312.1971350999956,cross,"(480.0, -270.0)",0,2960.721299998113,1448.4376999898814,True,False
15,2,1312.2146188000042,cross,"(480.0, -270.0)",0,2978.20500000671,1465.9213999984786,True,False
15,2,1312.230785000007,cross,"(480.0, -270.0)",0,2994.371200009482,1482.0876000012504,True,False
15,2,1312.2475854000077,cross,"(480.0, -270.0)",0,3011.1716000101296,1498.888000001898,True,False
15,2,1312.2638261999964,cross,"(480.0, -270.0)",0,3027.412399998866,1515.1287999906344,True,False
15,2,1312.2817151000054,cross,"(480.0, -270.0)",0,3045.30130000785,1533.0176999996183,True,False
15,2,1312.296111699994,cross,"(480.0, -270.0)",0,3059.697899996536,1547.4142999883043,True,False
15,2,1312.317877399997,cross,"(480.0, -270.0)",0,3081.4635999995517,1569.17999999132,True,False
15,2,1312.3339773000043,cross,"(480.0, -270.0)",0,3097.5635000067996,1585.279899998568,True,False
15,2,1312.3571744999936,cross,"(480.0, -270.0)",0,3120.7606999960262,1608.4770999877946,True,False
15,2,1312.376427700001,cross,"(480.0, -270.0)",0,3140.013900003396,1627.7302999951644,True,False
15,2,1312.4031658000022,cross,"(480.0, -270.0)",0,3166.752000004635,1654.4683999964036,True,False
15,2,1312.4231328000023,cross,"(480.0, -270.0)",0,3186.719000004814,1674.4353999965824,True,False
15,2,1312.4418359999981,cross,"(480.0, -270.0)",0,3205.422200000612,1693.1385999923805,True,False
15,2,1312.4677069000027,cross,"(480.0, -270.0)",0,3231.293100005132,1719.0094999969006,True,False
15,2,1312.4885192999936,cross,"(480.0, -270.0)",0,3252.105499996105,1739.8218999878736,True,False
15,2,1312.5040192000015,cross,"(480.0, -270.0)",0,3267.6054000039585,1755.321799995727,True,False
17,1,1334.123401200006,cross,"(480.0, -270.0)",266.7090000031749,549.2756000021473,549.2756000021473,False,True
17,2,1334.5569876999944,circle,"(-480.0, -270.0)",250.9313999908045,982.8620999905979,433.58649998845067,True,False
17,2,1334.5836729000002,circle,"(-480.0, -270.0)",0,1009.5472999964841,460.2716999943368,True,False
17,2,1334.5940406000009,circle,"(-480.0, -270.0)",0,1019.9149999971269,470.6393999949796,True,False
17,2,1334.6222200000047,circle,"(-480.0, -270.0)",0,1048.0944000009913,498.81879999884404,True,False
17,2,1334.6393417000072,circle,"(-480.0, -270.0)",0,1065.216100003454,515.9405000013066,True,False
17,2,1334.6565970999945,circle,"(-480.0, -270.0)",0,1082.4714999907883,533.195899988641,True,False
17,2,1334.6726879000053,circle,"(-480.0, -270.0)",0,1098.562300001504,549.2866999993566,True,False
17,2,1334.6902890000056,circle,"(-480.0, -270.0)",0,1116.163400001824,566.8877999996766,True,False
17,2,1334.7057413000002,circle,"(-480.0, -270.0)",0,1131.6156999964733,582.340099994326,True,False
17,2,1334.7236682000075,circle,"(-480.0, -270.0)",0,1149.5426000037696,600.2670000016224,True,False
17,2,1334.740134199994,circle,"(-480.0, -270.0)",0,1166.008599990164,616.7329999880167,True,False
17,2,1334.7572603000008,circle,"(-480.0, -270.0)",0,1183.1346999970265,633.8590999948792,True,False
17,2,1334.7726575999986,circle,"(-480.0, -270.0)",0,1198.5319999948842,649.256399992737,True,False
17,2,1334.7900059999956,circle,"(-480.0, -270.0)",0,1215.8803999918746,666.6047999897273,True,False
17,2,1334.806016500006,circle,"(-480.0, -270.0)",0,1231.8909000023268,682.6153000001796,True,False
17,2,1334.8233858000021,circle,"(-480.0, -270.0)",0,1249.260199998389,699.9845999962417,True,False
17,2,1334.8390268000076,circle,"(-480.0, -270.0)",0,1264.9012000038056,715.6256000016583,True,False
17,2,1334.856880499996,circle,"(-480.0, -270.0)",0,1282.7548999921419,733.4792999899946,True,False
17,2,1334.8726186999993,circle,"(-480.0, -270.0)",0,1298.4930999955395,749.2174999933923,True,False
17,2,1334.8893370000005,circle,"(-480.0, -270.0)",0,1315.2113999967696,765.9357999946224,True,False
17,2,1334.9058354000008,circle,"(-480.0, -270.0)",0,1331.7097999970429,782.4341999948956,True,False
17,2,1334.923647699994,circle,"(-480.0, -270.0)",0,1349.5220999902813,800.246499988134,True,False
17,2,1334.9395430000004,circle,"(-480.0, -270.0)",0,1365.4173999966588,816.1417999945115,True,False
17,2,1334.9571571999986,circle,"(-480.0, -270.0)",0,1383.0315999948652,833.755999992718,True,False
17,2,1334.9725734999956,circle,"(-480.0, -270.0)",0,1398.4478999918792,849.172299989732,True,False
17,2,1334.9900860000052,circle,"(-480.0, -270.0)",0,1415.9604000014951,866.6847999993479,True,False
17,2,1335.0059572000027,circle,"(-480.0, -270.0)",0,1431.8315999989863,882.5559999968391,True,False
17,2,1335.0238300000055,circle,"(-480.0, -270.0)",0,1449.7044000017922,900.428799999645,True,False
17,2,1335.0390110000008,circle,"(-480.0, -270.0)",0,1464.8853999970015,915.6097999948543,True,False
17,2,1335.0561673000047,circle,"(-480.0, -270.0)",0,1482.041700000991,932.7660999988439,True,False
17,2,1335.0721491000004,circle,"(-480.0, -270.0)",0,1498.0234999966342,948.7478999944869,True,False
17,2,1335.0900946000038,circle,"(-480.0, -270.0)",0,1515.969000000041,966.6933999978937,True,False
17,2,1335.1057136000018,circle,"(-480.0, -270.0)",0,1531.5879999980098,982.3123999958625,True,False
17,2,1335.1237915999955,circle,"(-480.0, -270.0)",0,1549.6659999917028,1000.3903999895556,True,False
17,2,1335.1255461999972,cross,"(480.0, -270.0)",266.96890000312123,1551.4205999934347,1002.1449999912875,True,False
17,2,1335.1423554000066,cross,"(480.0, -270.0)",0,1568.2298000028823,1018.954200000735,True,False
17,2,1335.1568579000013,cross,"(480.0, -270.0)",0,1582.7322999975877,1033.4566999954404,True,False
17,2,1335.1723526999995,cross,"(480.0, -270.0)",0,1598.227099995711,1048.9514999935636,True,False
17,2,1335.1896177000017,cross,"(480.0, -270.0)",0,1615.4920999979367,1066.2164999957895,True,False
17,2,1335.205768300002,cross,"(480.0, -270.0)",0,1631.6426999983378,1082.3670999961905,True,False
17,2,1335.2235158999974,cross,"(480.0, -270.0)",0,1649.3902999936836,1100.1146999915363,True,False
17,2,1335.2392553999962,cross,"(480.0, -270.0)",0,1665.1297999924282,1115.854199990281,True,False
17,2,1335.2566458999936,cross,"(480.0, -270.0)",0,1682.5202999898465,1133.2446999876993,True,False
17,2,1335.272869499997,cross,"(480.0, -270.0)",0,1698.7438999931328,1149.4682999909855,True,False
17,2,1335.2905438000016,cross,"(480.0, -270.0)",0,1716.418199997861,1167.1425999957137,True,False
17,2,1335.3054671999998,cross,"(480.0, -270.0)",0,1731.3415999960853,1182.065999993938,True,False
17,2,1335.3232695000042,cross,"(480.0, -270.0)",0,1749.1439000004902,1199.868299998343,True,False
17,2,1335.3390012000018,cross,"(480.0, -270.0)",0,1764.8755999980494,1215.5999999959022,True,False
17,2,1335.3568907000008,cross,"(480.0, -270.0)",0,1782.7650999970501,1233.4894999949029,True,False
17,2,1335.3723679999966,cross,"(480.0, -270.0)",0,1798.242399992887,1248.9667999907397,True,False
17,2,1335.3902036999934,cross,"(480.0, -270.0)",0,1816.0780999896815,1266.8024999875342,True,False
17,2,1335.405640099998,cross,"(480.0, -270.0)",0,1831.5144999942277,1282.2388999920804,True,False
17,2,1335.4231507000077,cross,"(480.0, -270.0)",0,1849.025100003928,1299.7495000017807,True,False
17,2,1335.439097399998,cross,"(480.0, -270.0)",0,1864.9717999942368,1315.6961999920895,True,False
17,2,1335.4566485999967,cross,"(480.0, -270.0)",0,1882.5229999929434,1333.247399990796,True,False
17,2,1335.4722986999986,cross,"(480.0, -270.0)",0,1898.1730999948923,1348.897499992745,True,False
17,2,1335.4902467000065,cross,"(480.0, -270.0)",0,1916.1211000027834,1366.845500000636,True,False
17,2,1335.5064376999944,cross,"(480.0, -270.0)",0,1932.3120999906678,1383.0364999885205,True,False
17,2,1335.5233513999992,cross,"(480.0, -270.0)",0,1949.2257999954745,1399.9501999933273,True,False
17,2,1335.5395588999963,cross,"(480.0, -270.0)",0,1965.4332999925828,1416.1576999904355,True,False
17,2,1335.556966300006,cross,"(480.0, -270.0)",0,1982.8407000022708,1433.5651000001235,True,False
17,2,1335.5730848999956,cross,"(480.0, -270.0)",0,1998.9592999918386,1449.6836999896914,True,False
17,2,1335.589803099996,cross,"(480.0, -270.0)",0,2015.6774999923073,1466.40189999016,True,False
17,2,1335.6057574000006,cross,"(480.0, -270.0)",0,2031.6317999968305,1482.3561999946833,True,False
17,2,1335.623325099994,cross,"(480.0, -270.0)",0,2049.199499990209,1499.9238999880617,True,False
17,2,1335.6390320000064,cross,"(480.0, -270.0)",0,2064.9064000026556,1515.6308000005083,True,False
17,2,1335.6567529000022,cross,"(480.0, -270.0)",0,2082.627299998421,1533.351699996274,True,False
17,2,1335.6723819000035,cross,"(480.0, -270.0)",0,2098.2562999997754,1548.980699997628,True,False
17,2,1335.6901460999943,cross,"(480.0, -270.0)",0,2116.0204999905545,1566.7448999884073,True,False
17,2,1335.705627400006,cross,"(480.0, -270.0)",0,2131.5018000022974,1582.2262000001501,True,False
17,2,1335.7233150999964,cross,"(480.0, -270.0)",0,2149.1894999926444,1599.9138999904972,True,False
17,2,1335.738937000002,cross,"(480.0, -270.0)",0,2164.8113999981433,1615.535799995996,True,False
17,2,1335.7569920999958,cross,"(480.0, -270.0)",0,2182.8664999920875,1633.5908999899402,True,False
17,2,1335.7721750000055,cross,"(480.0, -270.0)",0,2198.0494000017643,1648.773799999617,True,False
17,2,1335.7902867999946,cross,"(480.0, -270.0)",0,2216.161199990893,1666.8855999887455,True,False
17,2,1335.8056197999977,cross,"(480.0, -270.0)",0,2231.4941999939037,1682.2185999917565,True,False
17,2,1335.8228074000072,cross,"(480.0, -270.0)",0,2248.6818000033963,1699.406200001249,True,False
17,2,1335.8386197999935,cross,"(480.0, -270.0)",0,2264.494199989713,1715.2185999875655,True,False
17,2,1335.8563399999985,cross,"(480.0, -270.0)",0,2282.2143999947,1732.938799992553,True,False
17,2,1335.8723137000052,cross,"(480.0, -270.0)",0,2298.1881000014255,1748.9124999992782,True,False
17,2,1335.889776099997,cross,"(480.0, -270.0)",0,2315.650499993353,1766.374899991206,True,False
17,2,1335.9056230999995,cross,"(480.0, -270.0)",0,2331.4974999957485,1782.2218999936013,True,False
17,2,1335.923288799997,cross,"(480.0, -270.0)",0,2349.1631999931997,1799.8875999910524,True,False
17,2,1336.9553285000002,circle,"(-480.0, -270.0)",250.02570000651758,3381.202899996424,2831.927299994277,False,True
17,3,1337.2230235000025,circle,"(-480.0, -270.0)",264.97350000136066,3648.897899998701,267.6950000022771,True,False
17,3,1337.2413112000067,circle,"(-480.0, -270.0)",0,3667.1856000029948,285.98270000657067,True,False
17,3,1337.2562540000072,circle,"(-480.0, -270.0)",0,3682.128400003421,300.925500006997,True,False
17,3,1337.2720631999982,circle,"(-480.0, -270.0)",0,3697.937599994475,316.7346999980509,True,False
17,3,1337.2898368000024,circle,"(-480.0, -270.0)",0,3715.7111999986228,334.50830000219867,True,False
17,3,1337.3053593000077,circle,"(-480.0, -270.0)",0,3731.2337000039406,350.0308000075165,True,False
17,3,1337.3228254999995,circle,"(-480.0, -270.0)",0,3748.6998999956995,367.49699999927543,True,False
17,3,1337.338563199999,circle,"(-480.0, -270.0)",0,3764.43759999529,383.23469999886584,True,False
17,3,1337.355992900004,circle,"(-480.0, -270.0)",0,3781.867300000158,400.66440000373404,True,False
17,3,1337.3722262999945,circle,"(-480.0, -270.0)",0,3798.100699990755,416.89779999433085,True,False
17,3,1337.3892960999947,circle,"(-480.0, -270.0)",0,3815.170499990927,433.96759999450296,True,False
17,3,1337.4048028999969,circle,"(-480.0, -270.0)",0,3830.6772999931127,449.4743999966886,True,False
17,3,1337.4227612999966,circle,"(-480.0, -270.0)",0,3848.635699992883,467.4327999964589,True,False
17,3,1337.438732900002,circle,"(-480.0, -270.0)",0,3864.6072999981698,483.40440000174567,True,False
17,3,1337.4557159999968,circle,"(-480.0, -270.0)",0,3881.5903999930015,500.3874999965774,True,False
17,3,1337.471941900003,circle,"(-480.0, -270.0)",0,3897.816299999249,516.6134000028251,True,False
17,3,1337.4890288000024,circle,"(-480.0, -270.0)",0,3914.903199998662,533.7003000022378,True,False
17,3,1337.5051619000005,circle,"(-480.0, -270.0)",0,3931.0362999967765,549.8334000003524,True,False
17,3,1337.5223525000038,circle,"(-480.0, -270.0)",0,3948.2269000000088,567.0240000035847,True,False
17,3,1337.538750599997,circle,"(-480.0, -270.0)",0,3964.624999993248,583.4220999968238,True,False
17,3,1337.5557854000072,circle,"(-480.0, -270.0)",0,3981.659800003399,600.456900006975,True,False
17,3,1337.5723309000023,circle,"(-480.0, -270.0)",0,3998.205299998517,617.002400002093,True,False
17,3,1337.589186600002,circle,"(-480.0, -270.0)",0,4015.0609999982407,633.8581000018166,True,False
17,3,1337.6051292000047,circle,"(-480.0, -270.0)",0,4031.003600000986,649.8007000045618,True,False
17,3,1337.6225646999956,circle,"(-480.0, -270.0)",0,4048.4390999918105,667.2361999953864,True,False
17,3,1337.6378896999959,circle,"(-480.0, -270.0)",0,4063.764099992113,682.5611999956891,True,False
17,3,1337.6560658999952,circle,"(-480.0, -270.0)",0,4081.940299991402,700.7373999949777,True,False
17,3,1337.6716503000061,circle,"(-480.0, -270.0)",0,4097.524700002396,716.3218000059715,True,False
17,3,1337.6890646999964,circle,"(-480.0, -270.0)",0,4114.939099992625,733.7361999962013,True,False
17,3,1337.7050982000073,circle,"(-480.0, -270.0)",0,4130.972600003588,749.7697000071639,True,False
17,3,1337.7224019999994,circle,"(-480.0, -270.0)",0,4148.276399995666,767.0734999992419,True,False
17,3,1337.738768700001,circle,"(-480.0, -270.0)",0,4164.643099997193,783.4402000007685,True,False
17,3,1337.7557077999954,circle,"(-480.0, -270.0)",0,4181.582199991681,800.3792999952566,True,False
17,3,1337.7727162999945,circle,"(-480.0, -270.0)",0,4198.590699990746,817.3877999943215,True,False
17,3,1337.789352000007,circle,"(-480.0, -270.0)",0,4215.226400003303,834.0235000068787,True,False
17,3,1337.8054460999992,circle,"(-480.0, -270.0)",0,4231.3204999954905,850.1175999990664,True,False
17,3,1337.8228654999984,circle,"(-480.0, -270.0)",0,4248.739899994689,867.536999998265,True,False
17,3,1337.8379398999969,circle,"(-480.0, -270.0)",0,4263.814299993101,882.6113999966765,True,False
17,3,1337.855692600002,circle,"(-480.0, -270.0)",0,4281.5669999981765,900.3641000017524,True,False
17,3,1337.8716806000011,circle,"(-480.0, -270.0)",0,4297.554999997374,916.3521000009496,True,False
17,3,1337.8889576000074,circle,"(-480.0, -270.0)",0,4314.832000003662,933.6291000072379,True,False
17,3,1337.9052939999965,circle,"(-480.0, -270.0)",0,4331.168399992748,949.9654999963241,True,False
17,3,1337.922796800005,circle,"(-480.0, -270.0)",0,4348.671200001263,967.468300004839,True,False
17,3,1337.9382273999945,circle,"(-480.0, -270.0)",0,4364.101799990749,982.8988999943249,True,False
17,3,1337.9563554000051,circle,"(-480.0, -270.0)",0,4382.229800001369,1001.0269000049448,True,False
17,3,1337.971949400002,circle,"(-480.0, -270.0)",0,4397.82379999815,1016.6209000017261,True,False
17,3,1337.9894486999983,circle,"(-480.0, -270.0)",0,4415.323099994566,1034.1201999981422,True,False
17,3,1338.0049587999965,circle,"(-480.0, -270.0)",0,4430.833199992776,1049.6302999963518,True,False
17,3,1338.0223888000037,circle,"(-480.0, -270.0)",0,4448.2631999999285,1067.0603000035044,True,False
17,3,1338.0383432999952,circle,"(-480.0, -270.0)",0,4464.217699991423,1083.0147999949986,True,False
17,3,1338.0562897000054,circle,"(-480.0, -270.0)",0,4482.1641000016825,1100.9612000052584,True,False
17,3,1338.0711829000065,circle,"(-480.0, -270.0)",0,4497.05730000278,1115.8544000063557,True,False
17,3,1338.0890757000016,circle,"(-480.0, -270.0)",0,4514.9500999978045,1133.7472000013804,True,False
17,3,1338.1048002000025,circle,"(-480.0, -270.0)",0,4530.674599998747,1149.471700002323,True,False
17,3,1338.1223811999953,circle,"(-480.0, -270.0)",0,4548.255599991535,1167.0526999951107,True,False
17,3,1338.1384222000052,circle,"(-480.0, -270.0)",0,4564.2966000013985,1183.0937000049744,True,False
17,3,1338.1561230999941,circle,"(-480.0, -270.0)",0,4581.997499990393,1200.7945999939693,True,False
17,3,1338.171402299995,circle,"(-480.0, -270.0)",0,4597.276699991198,1216.0737999947742,True,False
17,3,1338.1888422000047,circle,"(-480.0, -270.0)",0,4614.716600000975,1233.5137000045506,True,False
17,3,1338.2056669000012,circle,"(-480.0, -270.0)",0,4631.54129999748,1250.3384000010556,True,False
17,3,1338.2252856999985,circle,"(-480.0, -270.0)",0,4651.16009999474,1269.9571999983164,True,False
17,3,1338.2391509000008,circle,"(-480.0, -270.0)",0,4665.025299997069,1283.8224000006448,True,False
17,3,1338.2558509999944,circle,"(-480.0, -270.0)",0,4681.7253999906825,1300.5224999942584,True,False
17,3,1338.2715045000077,circle,"(-480.0, -270.0)",0,4697.378900003969,1316.1760000075446,True,False
17,3,1338.2890825000068,circle,"(-480.0, -270.0)",0,4714.956900003017,1333.7540000065928,True,False
17,3,1338.3050402999943,circle,"(-480.0, -270.0)",0,4730.914699990535,1349.711799994111,True,False
17,3,1338.322981300007,circle,"(-480.0, -270.0)",0,4748.8557000033325,1367.6528000069084,True,False
17,3,1338.338540800003,circle,"(-480.0, -270.0)",0,4764.415199999348,1383.2123000029242,True,False
17,3,1338.356518600005,circle,"(-480.0, -270.0)",0,4782.393000001321,1401.1901000048965,True,False
17,3,1338.3714706000028,circle,"(-480.0, -270.0)",0,4797.344999999041,1416.1421000026166,True,False
17,3,1338.388844999994,circle,"(-480.0, -270.0)",0,4814.719399990281,1433.516499993857,True,False
17,3,1338.4049553000077,circle,"(-480.0, -270.0)",0,4830.82970000396,1449.626800007536,True,False
17,3,1338.4220766000071,circle,"(-480.0, -270.0)",0,4847.951000003377,1466.7481000069529,True,False
17,3,1338.438436700002,circle,"(-480.0, -270.0)",0,4864.311099998304,1483.1082000018796,True,False
17,3,1338.4556817999983,circle,"(-480.0, -270.0)",0,4881.55619999452,1500.3532999980962,True,False
17,3,1338.4715214000025,circle,"(-480.0, -270.0)",0,4897.395799998776,1516.192900002352,True,False
17,3,1338.489294900006,circle,"(-480.0, -270.0)",0,4915.169300002162,1533.9664000057383,True,False
17,3,1338.5053356999997,circle,"(-480.0, -270.0)",0,4931.210099995951,1550.007199999527,True,False
17,3,1338.522502599997,circle,"(-480.0, -270.0)",0,4948.376999993343,1567.1740999969188,True,False
17,3,1338.537808299996,circle,"(-480.0, -270.0)",0,4963.682699992205,1582.479799995781,True,False
17,3,1338.5559340000036,circle,"(-480.0, -270.0)",0,4981.8083999998635,1600.6055000034394,True,False
17,3,1338.5713590999949,circle,"(-480.0, -270.0)",0,4997.233499991125,1616.0305999947013,True,False
17,3,1338.5888204000075,circle,"(-480.0, -270.0)",0,5014.694800003781,1633.491900007357,True,False
17,3,1338.604922700004,circle,"(-480.0, -270.0)",0,5030.7971000002,1649.5942000037758,True,False
17,3,1338.6235059000028,circle,"(-480.0, -270.0)",0,5049.380299999029,1668.1774000026053,True,False
17,3,1338.6387257000024,circle,"(-480.0, -270.0)",0,5064.600099998643,1683.3972000022186,True,False
17,3,1338.6554442000051,circle,"(-480.0, -270.0)",0,5081.318600001396,1700.1157000049716,True,False
17,3,1338.6721343999961,circle,"(-480.0, -270.0)",0,5098.008799992385,1716.8058999959612,True,False
17,3,1338.6891710000054,circle,"(-480.0, -270.0)",0,5115.045400001691,1733.8425000052666,True,False
17,3,1338.7052399999957,circle,"(-480.0, -270.0)",0,5131.1143999919295,1749.9114999955054,True,False
17,3,1338.723094400004,circle,"(-480.0, -270.0)",0,5148.968800000148,1767.7659000037238,True,False
17,3,1341.6542995000054,cross,"(480.0, -270.0)",266.01980000850745,8080.173900001682,4698.971000005258,False,True
17,4,1347.0534474000015,star,"(-480.0, 270.0)",266.3468999962788,13479.321799997706,5399.147899996024,False,True
