trial_num,selection_num,timestamp,shape,position,fixation_duration_ms,rt_from_trial_start_ms,rt_from_previous_selection_ms,queued_selection,was_executed
13,1,1400.5692128000082,cross,"(480.0, -270.0)",266.8452000361867,780.460000038147,780.460000038147,False,True
13,2,1400.9533175000106,star,"(-480.0, 270.0)",265.91560000088066,1164.5647000405006,384.10470000235364,True,False
13,2,1400.9723863999825,star,"(-480.0, 270.0)",0,1183.6336000123993,403.1735999742523,True,False
13,2,1400.9861818999634,star,"(-480.0, 270.0)",0,1197.4290999933146,416.9690999551676,True,False
13,2,1401.002249699959,star,"(-480.0, 270.0)",0,1213.496899988968,433.03689995082095,True,False
13,2,1401.0193257000064,star,"(-480.0, 270.0)",0,1230.57290003635,450.1128999982029,True,False
13,2,1401.0327489000047,star,"(-480.0, 270.0)",0,1243.9961000345647,463.53609999641776,True,False
13,2,1401.0524223999819,star,"(-480.0, 270.0)",0,1263.6696000117809,483.2095999736339,True,False
13,2,1401.0685053999769,star,"(-480.0, 270.0)",0,1279.7526000067592,499.2925999686122,True,False
13,2,1401.0825647999882,star,"(-480.0, 270.0)",0,1293.8120000180788,513.3519999799319,True,False
13,2,1401.1023546999786,star,"(-480.0, 270.0)",0,1313.601900008507,533.1418999703601,True,False
13,2,1401.118401099986,star,"(-480.0, 270.0)",0,1329.6483000158332,549.1882999776863,True,False
13,2,1401.1329713999876,star,"(-480.0, 270.0)",0,1344.2186000174843,563.7585999793373,True,False
13,2,1401.1532000000007,star,"(-480.0, 270.0)",0,1364.447200030554,583.9871999924071,True,False
13,2,1401.1699211999658,star,"(-480.0, 270.0)",0,1381.1683999956585,600.7083999575116,True,False
13,2,1401.1862375999917,star,"(-480.0, 270.0)",0,1397.4848000216298,617.0247999834828,True,False
13,2,1401.202740299981,star,"(-480.0, 270.0)",0,1413.9875000109896,633.5274999728426,True,False
13,2,1401.2196761000087,star,"(-480.0, 270.0)",0,1430.9233000385575,650.4633000004105,True,False
13,2,1401.2346631999826,star,"(-480.0, 270.0)",0,1445.910400012508,665.4503999743611,True,False
13,2,1401.2498075999902,star,"(-480.0, 270.0)",0,1461.0548000200652,680.5947999819182,True,False
13,2,1401.269184899982,star,"(-480.0, 270.0)",0,1480.4321000119671,699.9720999738201,True,False
13,2,1401.2855479999562,star,"(-480.0, 270.0)",0,1496.7951999860816,716.3351999479346,True,False
13,2,1401.3023320999928,star,"(-480.0, 270.0)",0,1513.579300022684,733.1192999845371,True,False
13,2,1401.3184231999912,star,"(-480.0, 270.0)",0,1529.670400021132,749.2103999829851,True,False
13,2,1401.3325195999932,star,"(-480.0, 270.0)",0,1543.7668000231497,763.3067999850027,True,False
13,2,1401.3528419999639,star,"(-480.0, 270.0)",0,1564.0891999937594,783.6291999556124,True,False
13,2,1401.3696594999637,star,"(-480.0, 270.0)",0,1580.9066999936476,800.4466999555007,True,False
13,2,1401.373260399967,cross,"(480.0, -270.0)",250.41300000157207,1584.5075999968685,804.0475999587215,True,False
13,2,1401.3889149999595,cross,"(480.0, -270.0)",0,1600.1621999894269,819.7021999512799,True,False
13,2,1401.4020734999795,cross,"(480.0, -270.0)",0,1613.3207000093535,832.8606999712065,True,False
13,2,1401.4200106000062,cross,"(480.0, -270.0)",0,1631.25780003611,850.797799997963,True,False
13,2,1401.4334159999853,cross,"(480.0, -270.0)",0,1644.6632000152022,864.2031999770552,True,False
13,2,1401.4526720999856,cross,"(480.0, -270.0)",0,1663.91930001555,883.4592999774031,True,False
13,2,1401.4689692999818,cross,"(480.0, -270.0)",0,1680.2165000117384,899.7564999735914,True,False
13,2,1401.487367099966,cross,"(480.0, -270.0)",0,1698.6142999958247,918.1542999576777,True,False
13,2,1401.5027108999784,cross,"(480.0, -270.0)",0,1713.9581000083126,933.4980999701656,True,False
13,2,1401.5190685999696,cross,"(480.0, -270.0)",0,1730.3157999995165,949.8557999613695,True,False
13,2,1401.5344851000118,cross,"(480.0, -270.0)",0,1745.732300041709,965.2723000035621,True,False
13,2,1401.5524535999866,cross,"(480.0, -270.0)",0,1763.7008000165224,983.2407999783754,True,False
13,2,1401.5693374999682,cross,"(480.0, -270.0)",0,1780.584699998144,1000.1246999599971,True,False
13,2,1401.5859180999687,cross,"(480.0, -270.0)",0,1797.1652999985963,1016.7052999604493,True,False
13,2,1401.6014610999846,cross,"(480.0, -270.0)",0,1812.7083000144921,1032.2482999763452,True,False
13,2,1401.6193720999872,cross,"(480.0, -270.0)",0,1830.6193000171334,1050.1592999789864,True,False
13,2,1401.6357177000027,cross,"(480.0, -270.0)",0,1846.9649000326172,1066.5048999944702,True,False
13,2,1401.6497787999688,cross,"(480.0, -270.0)",0,1861.0259999986738,1080.5659999605268,True,False
13,2,1401.6694881999865,cross,"(480.0, -270.0)",0,1880.7354000164196,1100.2753999782726,True,False
13,2,1401.6863486999646,cross,"(480.0, -270.0)",0,1897.595899994485,1117.135899956338,True,False
13,2,1401.703067299968,cross,"(480.0, -270.0)",0,1914.3144999979995,1133.8544999598525,True,False
13,2,1401.718837399967,cross,"(480.0, -270.0)",0,1930.084599996917,1149.62459995877,True,False
13,2,1401.736267499975,cross,"(480.0, -270.0)",0,1947.514700004831,1167.054699966684,True,False
13,2,1401.7523502999684,cross,"(480.0, -270.0)",0,1963.5974999982864,1183.1374999601394,True,False
13,2,1401.7703529999708,cross,"(480.0, -270.0)",0,1981.6002000006847,1201.1401999625377,True,False
13,2,1401.7850060999626,cross,"(480.0, -270.0)",0,1996.2532999925315,1215.7932999543846,True,False
13,2,1401.8028780999593,cross,"(480.0, -270.0)",0,2014.1252999892458,1233.6652999510989,True,False
13,2,1401.818274499965,cross,"(480.0, -270.0)",0,2029.5216999948025,1249.0616999566555,True,False
13,2,1401.8357791999588,cross,"(480.0, -270.0)",0,2047.026399988681,1266.566399950534,True,False
13,2,1401.849102600012,cross,"(480.0, -270.0)",0,2060.3498000418767,1279.8898000037298,True,False
13,2,1401.8687663999735,cross,"(480.0, -270.0)",0,2080.01360000344,1299.553599965293,True,False
13,2,1401.8861678999965,cross,"(480.0, -270.0)",0,2097.41510002641,1316.955099988263,True,False
13,2,1401.9027244999888,cross,"(480.0, -270.0)",0,2113.9717000187375,1333.5116999805905,True,False
13,2,1401.918988499965,cross,"(480.0, -270.0)",0,2130.235699994955,1349.7756999568082,True,False
13,2,1401.9328665999928,cross,"(480.0, -270.0)",0,2144.113800022751,1363.6537999846041,True,False
13,2,1401.9531068999786,cross,"(480.0, -270.0)",0,2164.354100008495,1383.8940999703482,True,False
13,2,1401.9696219000034,cross,"(480.0, -270.0)",0,2180.8691000333056,1400.4090999951586,True,False
13,2,1401.9862078999868,cross,"(480.0, -270.0)",0,2197.4551000166684,1416.9950999785215,True,False
13,2,1401.999984199996,cross,"(480.0, -270.0)",0,2211.2314000260085,1430.7713999878615,True,False
13,2,1402.0192779999925,cross,"(480.0, -270.0)",0,2230.5252000223845,1450.0651999842376,True,False
13,2,1402.034960799967,cross,"(480.0, -270.0)",0,2246.207999996841,1465.747999958694,True,False
13,2,1402.052314599976,cross,"(480.0, -270.0)",0,2263.5618000058457,1483.1017999676988,True,False
13,2,1402.0681654000073,cross,"(480.0, -270.0)",0,2279.412600037176,1498.9525999990292,True,False
13,2,1402.0860806999844,cross,"(480.0, -270.0)",0,2297.327900014352,1516.867899976205,True,False
13,2,1402.1012621999835,cross,"(480.0, -270.0)",0,2312.5094000133686,1532.0493999752216,True,False
13,2,1402.1188337999629,cross,"(480.0, -270.0)",0,2330.080999992788,1549.6209999546409,True,False
13,2,1402.1356965999585,cross,"(480.0, -270.0)",0,2346.9437999883667,1566.4837999502197,True,False
13,2,1402.1526390999788,cross,"(480.0, -270.0)",0,2363.886300008744,1583.426299970597,True,False
13,2,1402.1699514999636,cross,"(480.0, -270.0)",0,2381.198699993547,1600.7386999554,True,False
13,2,1402.1863947999664,cross,"(480.0, -270.0)",0,2397.6419999962673,1617.1819999581203,True,False
13,2,1402.2008392999996,cross,"(480.0, -270.0)",0,2412.0865000295453,1631.6264999913983,True,False
13,2,1402.2196686000098,cross,"(480.0, -270.0)",0,2430.9158000396565,1650.4558000015095,True,False
13,2,1402.2358749000123,cross,"(480.0, -270.0)",0,2447.122100042179,1666.6621000040323,True,False
13,2,1402.2498340999591,cross,"(480.0, -270.0)",0,2461.0812999890186,1680.6212999508716,True,False
13,2,1402.26941790001,cross,"(480.0, -270.0)",0,2480.6651000399143,1700.2051000017673,True,False
13,2,1402.2853989999858,cross,"(480.0, -270.0)",0,2496.6462000156753,1716.1861999775283,True,False
13,2,1402.3022443999653,cross,"(480.0, -270.0)",0,2513.4915999951772,1733.0315999570303,True,False
13,2,1402.3180422000005,cross,"(480.0, -270.0)",0,2529.289400030393,1748.8293999922462,True,False
13,2,1402.3324878999847,cross,"(480.0, -270.0)",0,2543.735100014601,1763.275099976454,True,False
13,2,1402.3523389999755,cross,"(480.0, -270.0)",0,2563.586200005375,1783.1261999672279,True,False
13,2,1403.3509931999724,star,"(-480.0, 270.0)",265.77409997116774,3562.240400002338,2781.780399964191,False,True
13,3,1403.617877999961,star,"(-480.0, 270.0)",264.3923999858089,3829.1251999908127,266.8847999884747,True,False
13,3,1403.6363538999576,star,"(-480.0, 270.0)",0,3847.6010999875143,285.3606999851763,True,False
13,3,1403.6486390999635,star,"(-480.0, 270.0)",0,3859.886299993377,297.6458999910392,True,False
13,3,1403.668140899972,star,"(-480.0, 270.0)",0,3879.388100001961,317.147699999623,True,False
13,3,1403.6847424999578,star,"(-480.0, 270.0)",0,3895.9896999876946,333.74929998535663,True,False
13,3,1403.7018399999943,star,"(-480.0, 270.0)",0,3913.087200024165,350.8468000218272,True,False
13,3,1403.7175881000003,star,"(-480.0, 270.0)",0,3928.8353000301868,366.5949000278488,True,False
13,3,1403.735045999987,star,"(-480.0, 270.0)",0,3946.293200016953,384.05280001461506,True,False
13,3,1403.7507858999888,star,"(-480.0, 270.0)",0,3962.0331000187434,399.79270001640543,True,False
13,3,1403.7666754999664,star,"(-480.0, 270.0)",0,3977.9226999962702,415.68229999393225,True,False
13,3,1403.7854006999987,star,"(-480.0, 270.0)",0,3996.64790002862,434.4075000262819,True,False
13,3,1403.800484300009,star,"(-480.0, 270.0)",0,4011.731500038877,449.49110003653914,True,False
13,3,1403.818063099985,star,"(-480.0, 270.0)",0,4029.310300014913,467.0699000125751,True,False
13,3,1403.833760300011,star,"(-480.0, 270.0)",0,4045.0075000408106,482.76710003847256,True,False
13,3,1403.8486771999742,star,"(-480.0, 270.0)",0,4059.9244000040926,497.6840000017546,True,False
13,3,1403.8679397999658,star,"(-480.0, 270.0)",0,4079.186999995727,516.9465999933891,True,False
13,3,1403.8868326999946,star,"(-480.0, 270.0)",0,4098.079900024459,535.8395000221208,True,False
13,3,1403.902882299968,star,"(-480.0, 270.0)",0,4114.129499997944,551.8890999956056,True,False
13,3,1403.9188302999828,star,"(-480.0, 270.0)",0,4130.077500012703,567.8371000103652,True,False
13,3,1403.9397972999723,star,"(-480.0, 270.0)",0,4151.044500002172,588.8040999998339,True,False
13,3,1403.956303199986,star,"(-480.0, 270.0)",0,4167.550400015898,605.31000001356,True,False
13,3,1403.9741091000033,star,"(-480.0, 270.0)",0,4185.356300033163,623.1159000308253,True,False
13,3,1403.9902872999664,star,"(-480.0, 270.0)",0,4201.534499996342,639.2940999940038,True,False
13,3,1404.0184559999616,star,"(-480.0, 270.0)",0,4229.703199991491,667.4627999891527,True,False
13,3,1404.0353100000066,star,"(-480.0, 270.0)",0,4246.557200036477,684.3168000341393,True,False
13,3,1404.0523571000085,star,"(-480.0, 270.0)",0,4263.604300038423,701.3639000360854,True,False
13,3,1404.068193299987,star,"(-480.0, 270.0)",0,4279.44050001679,717.2001000144519,True,False
13,3,1404.086760999984,star,"(-480.0, 270.0)",0,4298.00820001401,735.7678000116721,True,False
13,3,1404.1018301000004,star,"(-480.0, 270.0)",0,4313.077300030272,750.8369000279345,True,False
13,3,1404.1197225999786,star,"(-480.0, 270.0)",0,4330.969800008461,768.7294000061229,True,False
13,3,1404.1325282999896,star,"(-480.0, 270.0)",0,4343.775500019547,781.5351000172086,True,False
13,3,1404.1520505999797,star,"(-480.0, 270.0)",0,4363.2978000096045,801.0574000072666,True,False
13,3,1404.1691442999872,star,"(-480.0, 270.0)",0,4380.39150001714,818.1511000148021,True,False
13,3,1404.1851305000018,star,"(-480.0, 270.0)",0,4396.377700031735,834.137300029397,True,False
13,3,1404.2013859999715,star,"(-480.0, 270.0)",0,4412.633200001437,850.3927999990992,True,False
13,3,1404.2190097999992,star,"(-480.0, 270.0)",0,4430.257000029087,868.0166000267491,True,False
13,3,1404.233753299981,star,"(-480.0, 270.0)",0,4445.000500010792,882.7601000084542,True,False
13,3,1404.2523299999884,star,"(-480.0, 270.0)",0,4463.577200018335,901.3368000159971,True,False
13,3,1404.2679804000072,star,"(-480.0, 270.0)",0,4479.22760003712,916.9872000347823,True,False
13,3,1404.2863271000097,star,"(-480.0, 270.0)",0,4497.57430003956,935.3339000372216,True,False
13,3,1404.3011118999566,star,"(-480.0, 270.0)",0,4512.359099986497,950.1186999841593,True,False
13,3,1404.3191177999834,star,"(-480.0, 270.0)",0,4530.365000013262,968.124600010924,True,False
13,3,1404.3328678999678,star,"(-480.0, 270.0)",0,4544.115099997725,981.8746999953873,True,False
13,3,1404.3516342999646,star,"(-480.0, 270.0)",0,4562.881499994546,1000.6410999922082,True,False
13,3,1404.3692443000036,star,"(-480.0, 270.0)",0,4580.491500033531,1018.2511000311933,True,False
13,3,1404.3851469999645,star,"(-480.0, 270.0)",0,4596.394199994393,1034.1537999920547,True,False
13,3,1404.4019436999806,star,"(-480.0, 270.0)",0,4613.1909000105225,1050.9505000081845,True,False
13,3,1404.4188132999698,star,"(-480.0, 270.0)",0,4630.060499999672,1067.8200999973342,True,False
13,3,1404.4345189000014,star,"(-480.0, 270.0)",0,4645.766100031324,1083.5257000289857,True,False
13,3,1404.4490163999726,star,"(-480.0, 270.0)",0,4660.263600002509,1098.0232000001706,True,False
13,3,1404.4689822999644,star,"(-480.0, 270.0)",0,4680.2294999943115,1117.9890999919735,True,False
13,3,1404.485377200006,star,"(-480.0, 270.0)",0,4696.624400035944,1134.3840000336058,True,False
13,3,1404.5022080999915,star,"(-480.0, 270.0)",0,4713.455300021451,1151.214900019113,True,False
13,3,1404.5176638999837,star,"(-480.0, 270.0)",0,4728.911100013647,1166.6707000113092,True,False
13,3,1404.5354750999832,star,"(-480.0, 270.0)",0,4746.722300013062,1184.4819000107236,True,False
13,3,1404.5510647000046,star,"(-480.0, 270.0)",0,4762.311900034547,1200.0715000322089,True,False
13,3,1404.5691221999587,star,"(-480.0, 270.0)",0,4780.369399988558,1218.1289999862202,True,False
13,3,1404.5842536999844,star,"(-480.0, 270.0)",0,4795.500900014304,1233.2605000119656,True,False
13,3,1404.5993132999865,star,"(-480.0, 270.0)",0,4810.560500016436,1248.320100014098,True,False
13,3,1404.6193823000067,star,"(-480.0, 270.0)",0,4830.6295000365935,1268.3891000342555,True,False
13,3,1404.6345993999857,star,"(-480.0, 270.0)",0,4845.846600015648,1283.6062000133097,True,False
13,3,1404.6521187999751,star,"(-480.0, 270.0)",0,4863.366000005044,1301.125600002706,True,False
13,3,1404.6672267999966,star,"(-480.0, 270.0)",0,4878.474000026472,1316.233600024134,True,False
13,3,1404.6860942000058,star,"(-480.0, 270.0)",0,4897.341400035657,1335.101000033319,True,False
13,3,1404.7010639999644,star,"(-480.0, 270.0)",0,4912.311199994292,1350.0707999919541,True,False
13,3,1404.7180675999844,star,"(-480.0, 270.0)",0,4929.314800014254,1367.0744000119157,True,False
13,3,1404.7321157999686,star,"(-480.0, 270.0)",0,4943.362999998499,1381.1225999961607,True,False
13,3,1404.7522539999918,star,"(-480.0, 270.0)",0,4963.50120002171,1401.2608000193723,True,False
13,3,1404.7684229000006,star,"(-480.0, 270.0)",0,4979.670100030489,1417.4297000281513,True,False
13,3,1404.7864577999571,star,"(-480.0, 270.0)",0,4997.704999987036,1435.464599984698,True,False
13,3,1404.8008826999576,star,"(-480.0, 270.0)",0,5012.129899987485,1449.8894999851473,True,False
13,3,1404.8175479999627,star,"(-480.0, 270.0)",0,5028.795199992601,1466.5547999902628,True,False
13,3,1404.8323670999962,star,"(-480.0, 270.0)",0,5043.614300026093,1481.3739000237547,True,False
13,3,1404.8518849000102,star,"(-480.0, 270.0)",0,5063.132100040093,1500.891700037755,True,False
13,3,1404.8675564999576,star,"(-480.0, 270.0)",0,5078.803699987475,1516.5632999851368,True,False
13,3,1404.8860920000006,star,"(-480.0, 270.0)",0,5097.339200030547,1535.0988000282086,True,False
13,3,1404.9006737999734,star,"(-480.0, 270.0)",0,5111.921000003349,1549.680600001011,True,False
13,3,1404.91497849999,star,"(-480.0, 270.0)",0,5126.225700019859,1563.9853000175208,True,False
13,3,1404.935417199973,star,"(-480.0, 270.0)",0,5146.664400002919,1584.4240000005811,True,False
13,3,1404.9506234999862,star,"(-480.0, 270.0)",0,5161.870700016152,1599.6303000138141,True,False
13,3,1404.9693498999695,star,"(-480.0, 270.0)",0,5180.5970999994315,1618.3566999970935,True,False
13,3,1404.984087699966,star,"(-480.0, 270.0)",0,5195.334899995942,1633.0944999936037,True,False
13,3,1405.0018763999688,star,"(-480.0, 270.0)",0,5213.123599998653,1650.883199996315,True,False
13,3,1405.0175723999855,star,"(-480.0, 270.0)",0,5228.819600015413,1666.579200013075,True,False
13,3,1405.0352294999757,star,"(-480.0, 270.0)",0,5246.476700005587,1684.2363000032492,True,False
13,3,1405.0509159999783,star,"(-480.0, 270.0)",0,5262.163200008217,1699.9228000058793,True,False
13,3,1405.0681307999766,star,"(-480.0, 270.0)",0,5279.378000006545,1717.1376000042073,True,False
13,3,1405.0857723999652,star,"(-480.0, 270.0)",0,5297.01959999511,1734.7791999927722,True,False
13,3,1405.1014825999737,star,"(-480.0, 270.0)",0,5312.729800003581,1750.4894000012428,True,False
13,3,1405.117349600012,star,"(-480.0, 270.0)",0,5328.596800041851,1766.3564000395127,True,False
13,3,1408.67975760001,cross,"(480.0, -270.0)",263.4920999989845,8891.00480003981,5328.764400037471,False,True
13,4,1410.8660777999903,star,"(-480.0, 270.0)",251.00879999808967,11077.32500002021,2186.3201999804005,False,True
14,1,1415.296951299999,t,"(480.0, 270.0)",251.58460001694039,581.8911000387743,581.8911000387743,False,True
14,2,1418.8982472000062,star,"(-480.0, 270.0)",251.46310002310202,4183.1870000460185,3601.295900007244,False,True
14,3,1419.1803985000006,star,"(-480.0, 270.0)",266.5675000171177,4465.338300040457,282.1512999944389,True,False
14,3,1419.1960009000031,star,"(-480.0, 270.0)",0,4480.940700042993,297.7536999969743,True,False
14,3,1419.213707799965,star,"(-480.0, 270.0)",0,4498.647600004915,315.46059995889664,True,False
14,3,1419.2305541000096,star,"(-480.0, 270.0)",0,4515.493900049478,332.3069000034593,True,False
14,3,1419.2473448999808,star,"(-480.0, 270.0)",0,4532.284700020682,349.09769997466356,True,False
14,3,1419.2627918999642,star,"(-480.0, 270.0)",0,4547.731700004078,364.54469995805994,True,False
14,3,1419.2772554999683,star,"(-480.0, 270.0)",0,4562.19530000817,379.0082999621518,True,False
14,3,1419.297184199968,star,"(-480.0, 270.0)",0,4582.124000007752,398.9369999617338,True,False
14,3,1419.3137834999943,star,"(-480.0, 270.0)",0,4598.72330003418,415.5362999881618,True,False
14,3,1419.330245399964,star,"(-480.0, 270.0)",0,4615.185200003907,431.9981999578886,True,False
14,3,1419.3451667999616,star,"(-480.0, 270.0)",0,4630.106600001454,446.91959995543584,True,False
14,3,1419.363614699978,star,"(-480.0, 270.0)",0,4648.554500017781,465.3674999717623,True,False
14,3,1419.379342900007,star,"(-480.0, 270.0)",0,4664.282700046897,481.0957000008784,True,False
14,3,1419.396977299999,star,"(-480.0, 270.0)",0,4681.917100038845,498.7300999928266,True,False
14,3,1419.413174299989,star,"(-480.0, 270.0)",0,4698.114100028761,514.9270999827422,True,False
14,3,1419.4310961999581,star,"(-480.0, 270.0)",0,4716.035999997985,532.8489999519661,True,False
14,3,1419.4456134999637,star,"(-480.0, 270.0)",0,4730.553300003521,547.3662999575026,True,False
14,3,1419.4639319999842,star,"(-480.0, 270.0)",0,4748.871800024062,565.6847999780439,True,False
14,3,1419.47713449999,star,"(-480.0, 270.0)",0,4762.074300029781,578.8872999837622,True,False
14,3,1419.4976753999945,star,"(-480.0, 270.0)",0,4782.615200034343,599.4281999883242,True,False
14,3,1419.5124379000044,star,"(-480.0, 270.0)",0,4797.377700044308,614.1906999982893,True,False
14,3,1419.529982100008,star,"(-480.0, 270.0)",0,4814.921900047921,631.7349000019021,True,False
14,3,1419.5436534999753,star,"(-480.0, 270.0)",0,4828.5933000152,645.4062999691814,True,False
14,3,1419.564292199968,star,"(-480.0, 270.0)",0,4849.23200000776,666.0449999617413,True,False
14,3,1419.5794098000042,star,"(-480.0, 270.0)",0,4864.349600044079,681.1625999980606,True,False
14,3,1419.5970763000078,star,"(-480.0, 270.0)",0,4882.016100047622,698.8291000016034,True,False
14,3,1419.6128874999704,star,"(-480.0, 270.0)",0,4897.827300010249,714.6402999642305,True,False
14,3,1419.630033399968,star,"(-480.0, 270.0)",0,4914.9732000078075,731.786199961789,True,False
14,3,1419.6460039999802,star,"(-480.0, 270.0)",0,4930.943800020032,747.7567999740131,True,False
14,3,1419.6637120000087,star,"(-480.0, 270.0)",0,4948.651800048538,765.464800002519,True,False
14,3,1419.6795766999712,star,"(-480.0, 270.0)",0,4964.5165000110865,781.329499965068,True,False
14,3,1419.6972322000074,star,"(-480.0, 270.0)",0,4982.172000047285,798.9850000012666,True,False
14,3,1419.714322099986,star,"(-480.0, 270.0)",0,4999.261900025886,816.074899979867,True,False
14,3,1419.730544399994,star,"(-480.0, 270.0)",0,5015.484200033825,832.2971999878064,True,False
14,3,1419.7456409999868,star,"(-480.0, 270.0)",0,5030.580800026655,847.3937999806367,True,False
14,3,1419.763712199987,star,"(-480.0, 270.0)",0,5048.652000026777,865.4649999807589,True,False
14,3,1419.7776141999639,star,"(-480.0, 270.0)",0,5062.554000003729,879.3669999577105,True,False
14,3,1419.7970588000026,star,"(-480.0, 270.0)",0,5081.998600042425,898.8115999964066,True,False
14,3,1419.8130062999553,star,"(-480.0, 270.0)",0,5097.94609999517,914.7590999491513,True,False
14,3,1419.830506599974,star,"(-480.0, 270.0)",0,5115.446400013752,932.2593999677338,True,False
14,3,1419.8462600999628,star,"(-480.0, 270.0)",0,5131.199900002684,948.0128999566659,True,False
14,3,1419.8601579999668,star,"(-480.0, 270.0)",0,5145.097800006624,961.9107999606058,True,False
14,3,1419.8804472999764,star,"(-480.0, 270.0)",0,5165.387100016233,982.2000999702141,True,False
14,3,1419.8958225999959,star,"(-480.0, 270.0)",0,5180.762400035746,997.5753999897279,True,False
14,3,1419.9146776999696,star,"(-480.0, 270.0)",0,5199.617500009481,1016.4304999634624,True,False
14,3,1419.9343140999554,star,"(-480.0, 270.0)",0,5219.253899995238,1036.066899949219,True,False
14,3,1419.9476776999654,star,"(-480.0, 270.0)",0,5232.61750000529,1049.4304999592714,True,False
14,3,1419.9625138999545,star,"(-480.0, 270.0)",0,5247.453699994367,1064.266699948348,True,False
14,3,1419.979959099961,star,"(-480.0, 270.0)",0,5264.898900000844,1081.7118999548256,True,False
14,3,1419.9959965999587,star,"(-480.0, 270.0)",0,5280.936399998609,1097.7493999525905,True,False
14,3,1420.0130496000056,star,"(-480.0, 270.0)",0,5297.989400045481,1114.802399999462,True,False
14,3,1420.0303416000097,star,"(-480.0, 270.0)",0,5315.281400049571,1132.0944000035524,True,False
14,3,1420.047053599963,star,"(-480.0, 270.0)",0,5331.99340000283,1148.8063999568112,True,False
14,3,1420.0603299000068,star,"(-480.0, 270.0)",0,5345.269700046629,1162.0827000006102,True,False
14,3,1420.079906400002,star,"(-480.0, 270.0)",0,5364.846200041939,1181.65919999592,True,False
14,3,1420.0963164999848,star,"(-480.0, 270.0)",0,5381.256300024688,1198.0692999786697,True,False
14,3,1420.1139019000111,star,"(-480.0, 270.0)",0,5398.84170005098,1215.6547000049613,True,False
14,3,1420.1291954999906,star,"(-480.0, 270.0)",0,5414.135300030466,1230.9482999844477,True,False
14,3,1420.1467703999951,star,"(-480.0, 270.0)",0,5431.710200035013,1248.5231999889947,True,False
14,3,1420.162525199994,star,"(-480.0, 270.0)",0,5447.465000033844,1264.2779999878258,True,False
14,3,1420.175931899983,star,"(-480.0, 270.0)",0,5460.871700022835,1277.6846999768168,True,False
14,3,1420.1960965999751,star,"(-480.0, 270.0)",0,5481.036400015,1297.8493999689817,True,False
14,3,1420.212330499955,star,"(-480.0, 270.0)",0,5497.270299994852,1314.0832999488339,True,False
14,3,1420.230604499986,star,"(-480.0, 270.0)",0,5515.544300025795,1332.3572999797761,True,False
14,3,1420.2460664999671,star,"(-480.0, 270.0)",0,5531.006300006993,1347.8192999609746,True,False
14,3,1420.2636170999613,star,"(-480.0, 270.0)",0,5548.556900001131,1365.3698999551125,True,False
14,3,1420.2774949999875,star,"(-480.0, 270.0)",0,5562.434800027404,1379.2477999813855,True,False
14,3,1420.297609000001,star,"(-480.0, 270.0)",0,5582.548800040968,1399.3617999949493,True,False
14,3,1420.312603199971,star,"(-480.0, 270.0)",0,5597.5430000107735,1414.355999964755,True,False
14,3,1420.3299478999688,star,"(-480.0, 270.0)",0,5614.887700008694,1431.7006999626756,True,False
14,3,1420.3463746999623,star,"(-480.0, 270.0)",0,5631.3145000021905,1448.127499956172,True,False
14,3,1420.3641106999712,star,"(-480.0, 270.0)",0,5649.050500011072,1465.863499965053,True,False
14,3,1420.3766452999553,star,"(-480.0, 270.0)",0,5661.585099995136,1478.3980999491177,True,False
14,3,1420.3964704999817,star,"(-480.0, 270.0)",0,5681.4103000215255,1498.223299975507,True,False
14,3,1420.412122300011,star,"(-480.0, 270.0)",0,5697.062100050971,1513.8751000049524,True,False
14,3,1420.4299685999868,star,"(-480.0, 270.0)",0,5714.908400026616,1531.7213999805972,True,False
14,3,1420.4460643999628,star,"(-480.0, 270.0)",0,5731.004200002644,1547.8171999566257,True,False
14,3,1420.4612848999677,star,"(-480.0, 270.0)",0,5746.224700007588,1563.0376999615692,True,False
14,3,1420.479898599966,star,"(-480.0, 270.0)",0,5764.838400005829,1581.65139995981,True,False
14,3,1420.4960426999605,star,"(-480.0, 270.0)",0,5780.982500000391,1597.7954999543726,True,False
14,3,1420.5142603999702,star,"(-480.0, 270.0)",0,5799.200200010091,1616.0131999640726,True,False
14,3,1420.5285851999652,star,"(-480.0, 270.0)",0,5813.525000005029,1630.3379999590106,True,False
14,3,1420.5474229999818,star,"(-480.0, 270.0)",0,5832.362800021656,1649.1757999756373,True,False
14,3,1420.5620468999841,star,"(-480.0, 270.0)",0,5846.98670002399,1663.7996999779716,True,False
14,3,1420.5800977000035,star,"(-480.0, 270.0)",0,5865.0375000434,1681.8504999973811,True,False
14,3,1420.5957780999597,star,"(-480.0, 270.0)",0,5880.717899999581,1697.5308999535628,True,False
14,3,1420.6133093999815,star,"(-480.0, 270.0)",0,5898.249200021382,1715.062199975364,True,False
14,3,1420.6298071999918,star,"(-480.0, 270.0)",0,5914.747000031639,1731.5599999856204,True,False
14,3,1420.6461013999651,star,"(-480.0, 270.0)",0,5931.041200004984,1747.8541999589652,True,False
14,3,1420.663038700004,star,"(-480.0, 270.0)",0,5947.978500043973,1764.7914999979548,True,False
14,3,1420.676375799987,star,"(-480.0, 270.0)",0,5961.315600026865,1778.128599980846,True,False
14,3,1420.696339899965,star,"(-480.0, 270.0)",0,5981.279700004961,1798.0926999589428,True,False
14,3,1423.1773038000101,t,"(480.0, 270.0)",264.1503000049852,8462.243600049987,4279.056600003969,False,True
14,4,1426.926808499964,star,"(-480.0, 270.0)",251.31129997316748,12211.74830000382,3749.5046999538317,False,True
15,1,1431.4892136999988,star,"(-480.0, 270.0)",250.32910000300035,724.4351000408642,724.4351000408642,False,True
15,2,1431.7421713999938,star,"(-480.0, 270.0)",250.01640000846237,977.3928000358865,252.95769999502227,True,False
15,2,1431.760285199969,star,"(-480.0, 270.0)",0,995.5066000111401,271.0714999702759,True,False
15,2,1431.7776172999875,star,"(-480.0, 270.0)",0,1012.8387000295334,288.40359998866916,True,False
15,2,1431.7919490999775,star,"(-480.0, 270.0)",0,1027.1705000195652,302.735399978701,True,False
15,2,1431.8114261999726,star,"(-480.0, 270.0)",0,1046.647600014694,322.21249997382984,True,False
15,2,1431.8259498999687,star,"(-480.0, 270.0)",0,1061.1713000107557,336.73619996989146,True,False
15,2,1431.8432605999988,star,"(-480.0, 270.0)",0,1078.4820000408217,354.04689999995753,True,False
15,2,1431.8580661999877,star,"(-480.0, 270.0)",0,1093.2876000297256,368.8524999888614,True,False
15,2,1431.8764370999997,star,"(-480.0, 270.0)",0,1111.6585000418127,387.22340000094846,True,False
15,2,1431.8904652000056,star,"(-480.0, 270.0)",0,1125.6866000476293,401.2515000067651,True,False
15,2,1431.9098715999862,star,"(-480.0, 270.0)",0,1145.0930000282824,420.6578999874182,True,False
15,2,1431.9255205999943,star,"(-480.0, 270.0)",0,1160.7420000364073,436.30689999554306,True,False
15,2,1431.9429829999572,star,"(-480.0, 270.0)",0,1178.204399999231,453.7692999583669,True,False
15,2,1431.957948700001,star,"(-480.0, 270.0)",0,1193.1701000430621,468.7350000021979,True,False
15,2,1431.9752687999862,star,"(-480.0, 270.0)",0,1210.490200028289,486.0550999874249,True,False
15,2,1431.9918751000077,star,"(-480.0, 270.0)",0,1227.0965000498109,502.66140000894666,True,False
15,2,1432.0094238999882,star,"(-480.0, 270.0)",0,1244.6453000302427,520.2101999893785,True,False
15,2,1432.0254424999584,star,"(-480.0, 270.0)",0,1260.6639000005089,536.2287999596447,True,False
15,2,1432.0405502999783,star,"(-480.0, 270.0)",0,1275.7717000204138,551.3365999795496,True,False
15,2,1432.059754099988,star,"(-480.0, 270.0)",0,1294.9755000299774,570.5403999891132,True,False
15,2,1432.0754785999889,star,"(-480.0, 270.0)",0,1310.70000003092,586.2648999900557,True,False
15,2,1432.0938385999762,star,"(-480.0, 270.0)",0,1329.0600000182167,604.6248999773525,True,False
15,2,1432.109091099992,star,"(-480.0, 270.0)",0,1344.3125000339933,619.8773999931291,True,False
15,2,1432.1260735999676,star,"(-480.0, 270.0)",0,1361.2950000097044,636.8598999688402,True,False
15,2,1432.1424977999995,star,"(-480.0, 270.0)",0,1377.7192000416107,653.2841000007465,True,False
15,2,1432.1598127000034,star,"(-480.0, 270.0)",0,1395.03410004545,670.5990000045858,True,False
15,2,1432.1765403999598,star,"(-480.0, 270.0)",0,1411.761800001841,687.3266999609768,True,False
15,2,1432.1928252999787,star,"(-480.0, 270.0)",0,1428.0467000207864,703.6115999799222,True,False
15,2,1432.2087090999703,star,"(-480.0, 270.0)",0,1443.9305000123568,719.4953999714926,True,False
15,2,1432.2257553999661,star,"(-480.0, 270.0)",0,1460.9768000082113,736.5416999673471,True,False
15,2,1432.2402295999927,star,"(-480.0, 270.0)",0,1475.451000034809,751.0158999939449,True,False
15,2,1432.2590735999984,star,"(-480.0, 270.0)",0,1494.295000040438,769.8598999995738,True,False
15,2,1432.274779999978,star,"(-480.0, 270.0)",0,1510.0014000199735,785.5662999791093,True,False
15,2,1432.2904849000042,star,"(-480.0, 270.0)",0,1525.706300046295,801.2712000054307,True,False
15,2,1432.3093829999561,star,"(-480.0, 270.0)",0,1544.6043999982066,820.1692999573424,True,False
15,2,1432.3257877999567,star,"(-480.0, 270.0)",0,1561.0091999988072,836.574099957943,True,False
15,2,1432.340216599987,star,"(-480.0, 270.0)",0,1575.438000028953,851.0028999880888,True,False
15,2,1432.3594916999573,star,"(-480.0, 270.0)",0,1594.7130999993533,870.2779999584891,True,False
15,2,1432.3766461999621,star,"(-480.0, 270.0)",0,1611.8676000041887,887.4324999633245,True,False
15,2,1432.3930096999975,star,"(-480.0, 270.0)",0,1628.2311000395566,903.7959999986924,True,False
15,2,1432.4091018000036,star,"(-480.0, 270.0)",0,1644.3232000456192,919.888100004755,True,False
15,2,1432.425960499968,star,"(-480.0, 270.0)",0,1661.1819000099786,936.7467999691144,True,False
15,2,1432.4418143999646,star,"(-480.0, 270.0)",0,1677.0358000067063,952.6006999658421,True,False
15,2,1432.4593813999672,star,"(-480.0, 270.0)",0,1694.6028000093065,970.1676999684423,True,False
15,2,1432.474569199956,star,"(-480.0, 270.0)",0,1709.7905999980867,985.3554999572225,True,False
15,2,1432.4903730999795,star,"(-480.0, 270.0)",0,1725.5945000215434,1001.1593999806792,True,False
15,2,1432.5087277999846,star,"(-480.0, 270.0)",0,1743.949200026691,1019.5140999858268,True,False
15,2,1432.5244832999888,star,"(-480.0, 270.0)",0,1759.704700030852,1035.269599989988,True,False
15,2,1432.5405765000032,star,"(-480.0, 270.0)",0,1775.7979000452906,1051.3628000044264,True,False
15,2,1432.5606595999561,star,"(-480.0, 270.0)",0,1795.8809999981895,1071.4458999573253,True,False
15,2,1432.5743914999766,star,"(-480.0, 270.0)",0,1809.612900018692,1085.1777999778278,True,False
15,2,1432.5927917999798,star,"(-480.0, 270.0)",0,1828.0132000218146,1103.5780999809504,True,False
15,2,1432.6088010999956,star,"(-480.0, 270.0)",0,1844.0225000376813,1119.587399996817,True,False
15,2,1432.6262594999862,star,"(-480.0, 270.0)",0,1861.4809000282548,1137.0457999873906,True,False
15,2,1432.6420593999792,star,"(-480.0, 270.0)",0,1877.2808000212535,1152.8456999803893,True,False
15,2,1432.6599056999548,star,"(-480.0, 270.0)",0,1895.1270999968983,1170.6919999560341,True,False
15,2,1432.6749269999564,star,"(-480.0, 270.0)",0,1910.148399998434,1185.7132999575697,True,False
15,2,1432.6931645000004,star,"(-480.0, 270.0)",0,1928.3859000424854,1203.9508000016212,True,False
15,2,1432.7077619999764,star,"(-480.0, 270.0)",0,1942.98340001842,1218.5482999775559,True,False
15,2,1432.7255437999847,star,"(-480.0, 270.0)",0,1960.765200026799,1236.3300999859348,True,False
15,2,1432.7399031000095,star,"(-480.0, 270.0)",0,1975.1245000516064,1250.6894000107422,True,False
15,2,1432.758911699988,star,"(-480.0, 270.0)",0,1994.1331000300124,1269.6979999891482,True,False
15,2,1432.776424199983,star,"(-480.0, 270.0)",0,2011.6456000250764,1287.2104999842122,True,False
15,2,1432.7924033000018,star,"(-480.0, 270.0)",0,2027.6247000438161,1303.189600002952,True,False
15,2,1432.8079750000034,star,"(-480.0, 270.0)",0,2043.1964000454172,1318.761300004553,True,False
15,2,1432.825721799978,star,"(-480.0, 270.0)",0,2060.9432000201195,1336.5080999792553,True,False
15,2,1432.8419015000109,star,"(-480.0, 270.0)",0,2077.1229000529274,1352.6878000120632,True,False
15,2,1432.856694899965,star,"(-480.0, 270.0)",0,2091.916300007142,1367.481199966278,True,False
15,2,1432.8758915999788,star,"(-480.0, 270.0)",0,2111.1130000208504,1386.6778999799863,True,False
15,2,1432.8902973000077,star,"(-480.0, 270.0)",0,2125.5187000497244,1401.0836000088602,True,False
15,2,1432.9091677999822,star,"(-480.0, 270.0)",0,2144.389200024307,1419.9540999834426,True,False
15,2,1432.9231078999583,star,"(-480.0, 270.0)",0,2158.3293000003323,1433.894199959468,True,False
15,2,1432.9416191999917,star,"(-480.0, 270.0)",0,2176.8406000337563,1452.4054999928921,True,False
15,2,1432.9577166999807,star,"(-480.0, 270.0)",0,2192.9381000227295,1468.5029999818653,True,False
15,2,1432.9761880000005,star,"(-480.0, 270.0)",0,2211.409400042612,1486.974300001748,True,False
15,2,1432.9924662999692,star,"(-480.0, 270.0)",0,2227.687700011302,1503.2525999704376,True,False
15,2,1433.0082664999645,star,"(-480.0, 270.0)",0,2243.487900006585,1519.0527999657206,True,False
15,2,1433.0252893999568,star,"(-480.0, 270.0)",0,2260.510799998883,1536.075699958019,True,False
15,2,1433.0402306999895,star,"(-480.0, 270.0)",0,2275.4521000315435,1551.0169999906793,True,False
15,2,1433.0600563999615,star,"(-480.0, 270.0)",0,2295.2778000035323,1570.8426999626681,True,False
15,2,1433.0745818999712,star,"(-480.0, 270.0)",0,2309.8033000133,1585.3681999724358,True,False
15,2,1433.0904354999657,star,"(-480.0, 270.0)",0,2325.6569000077434,1601.2217999668792,True,False
15,2,1433.1089518999797,star,"(-480.0, 270.0)",0,2344.1733000217937,1619.7381999809295,True,False
15,2,1433.123400099983,star,"(-480.0, 270.0)",0,2358.6215000250377,1634.1863999841735,True,False
15,2,1433.1423121999833,star,"(-480.0, 270.0)",0,2377.5336000253446,1653.0984999844804,True,False
15,2,1433.1583516999963,star,"(-480.0, 270.0)",0,2393.5731000383385,1669.1379999974743,True,False
15,2,1433.176157000009,star,"(-480.0, 270.0)",0,2411.378400051035,1686.9433000101708,True,False
15,2,1433.191285799956,star,"(-480.0, 270.0)",0,2426.5071999980137,1702.0720999571495,True,False
15,2,1433.2084483999643,star,"(-480.0, 270.0)",0,2443.669800006319,1719.2346999654546,True,False
15,2,1433.2244973999914,star,"(-480.0, 270.0)",0,2459.7188000334427,1735.2836999925785,True,False
15,2,1433.2420301999664,star,"(-480.0, 270.0)",0,2477.251600008458,1752.8164999675937,True,False
15,2,1433.2576452000067,star,"(-480.0, 270.0)",0,2492.8666000487283,1768.431500007864,True,False
16,1,1440.7890510999714,star,"(-480.0, 270.0)",262.269800005015,262.2923000017181,262.2923000017181,False,True
16,2,1441.055628800008,star,"(-480.0, 270.0)",262.1696999995038,528.870000038296,266.5777000365779,True,False
16,2,1441.0749879999785,star,"(-480.0, 270.0)",0,548.2292000087909,285.93690000707284,True,False
16,2,1441.0906001999974,star,"(-480.0, 270.0)",0,563.8414000277407,301.54910002602264,True,False
16,2,1441.1063027000055,star,"(-480.0, 270.0)",0,579.5439000357874,317.25160003406927,True,False
16,2,1441.1224278999725,star,"(-480.0, 270.0)",0,595.6691000028513,333.37680000113323,True,False
16,2,1441.1364286000025,star,"(-480.0, 270.0)",0,609.6698000328615,347.3775000311434,True,False
16,2,1441.1564450999722,star,"(-480.0, 270.0)",0,629.6863000025041,367.39400000078604,True,False
16,2,1441.1728716999642,star,"(-480.0, 270.0)",0,646.1128999944776,383.8205999927595,True,False
16,2,1441.1900213999907,star,"(-480.0, 270.0)",0,663.2626000209711,400.97030001925305,True,False
16,2,1441.2057491999585,star,"(-480.0, 270.0)",0,678.9903999888338,416.6980999871157,True,False
16,2,1441.2224722999963,star,"(-480.0, 270.0)",0,695.7135000266135,433.42120002489537,True,False
16,2,1441.238708399993,star,"(-480.0, 270.0)",0,711.9496000232175,449.6573000214994,True,False
16,2,1441.2562381000025,star,"(-480.0, 270.0)",0,729.4793000328355,467.18700003111735,True,False
16,2,1441.2716894999612,star,"(-480.0, 270.0)",0,744.930699991528,482.63839998980984,True,False
16,2,1441.2911467999802,star,"(-480.0, 270.0)",0,764.3880000105128,502.09570000879467,True,False
16,2,1441.3055866999784,star,"(-480.0, 270.0)",0,778.8279000087641,516.535600007046,True,False
16,2,1441.322715599963,star,"(-480.0, 270.0)",0,795.9567999932915,533.6644999915734,True,False
16,2,1441.3386976000038,star,"(-480.0, 270.0)",0,811.9388000341132,549.6465000323951,True,False
16,2,1441.3568221000023,star,"(-480.0, 270.0)",0,830.0633000326343,567.7710000309162,True,False
16,2,1441.3720445999643,star,"(-480.0, 270.0)",0,845.2857999945991,582.993499992881,True,False
16,2,1441.3905433999607,star,"(-480.0, 270.0)",0,863.7845999910496,601.4922999893315,True,False
16,2,1441.4067180999555,star,"(-480.0, 270.0)",0,879.959299985785,617.6669999840669,True,False
16,2,1441.4227529999916,star,"(-480.0, 270.0)",0,895.9942000219598,633.7019000202417,True,False
16,2,1441.4389097999665,star,"(-480.0, 270.0)",0,912.1509999968112,649.858699995093,True,False
16,2,1441.4560000000056,star,"(-480.0, 270.0)",0,929.2412000359036,666.9489000341855,True,False
16,2,1441.4716962999664,star,"(-480.0, 270.0)",0,944.9374999967404,682.6451999950223,True,False
16,2,1441.4908835999668,star,"(-480.0, 270.0)",0,964.1247999970801,701.832499995362,True,False
16,2,1441.505236099998,star,"(-480.0, 270.0)",0,978.4773000283167,716.1850000265986,True,False
16,2,1441.5195796999615,star,"(-480.0, 270.0)",0,992.8208999917842,730.5285999900661,True,False
16,2,1441.5390522999805,star,"(-480.0, 270.0)",0,1012.2935000108555,750.0012000091374,True,False
16,2,1441.5528133999906,star,"(-480.0, 270.0)",0,1026.0546000208706,763.7623000191525,True,False
16,2,1441.5726540999603,star,"(-480.0, 270.0)",0,1045.8952999906614,783.6029999889433,True,False
16,2,1441.5888946999912,star,"(-480.0, 270.0)",0,1062.1359000215307,799.8436000198126,True,False
16,2,1441.602817600011,star,"(-480.0, 270.0)",0,1076.05880004121,813.7665000394918,True,False
16,2,1441.6233108000015,star,"(-480.0, 270.0)",0,1096.5520000318065,834.2597000300884,True,False
16,2,1441.6362996000098,star,"(-480.0, 270.0)",0,1109.5408000401221,847.248500038404,True,False
16,2,1441.6565480999998,star,"(-480.0, 270.0)",0,1129.7893000300974,867.4970000283793,True,False
16,2,1441.67237559997,star,"(-480.0, 270.0)",0,1145.6168000004254,883.3244999987073,True,False
16,2,1441.6909063999774,star,"(-480.0, 270.0)",0,1164.1476000077091,901.855300005991,True,False
16,2,1441.7050908000092,star,"(-480.0, 270.0)",0,1178.3320000395179,916.0397000377998,True,False
16,2,1441.7223679999588,star,"(-480.0, 270.0)",0,1195.6091999891214,933.3168999874033,True,False
16,2,1441.7384184999974,star,"(-480.0, 270.0)",0,1211.659700027667,949.3674000259489,True,False
16,2,1441.7526818999904,star,"(-480.0, 270.0)",0,1225.9231000207365,963.6308000190184,True,False
16,2,1441.77257739997,star,"(-480.0, 270.0)",0,1245.818600000348,983.5262999986298,True,False
16,2,1441.7880653999746,star,"(-480.0, 270.0)",0,1261.3066000049002,999.0143000031821,True,False
16,2,1441.807286700001,star,"(-480.0, 270.0)",0,1280.5279000313021,1018.235600029584,True,False
16,2,1441.8219871000038,star,"(-480.0, 270.0)",0,1295.2283000340685,1032.9360000323504,True,False
16,2,1441.8394983999897,star,"(-480.0, 270.0)",0,1312.7396000199951,1050.447300018277,True,False
16,2,1441.8529182999628,star,"(-480.0, 270.0)",0,1326.1594999930821,1063.867199991364,True,False
16,2,1441.8730863999808,star,"(-480.0, 270.0)",0,1346.3276000111364,1084.0353000094183,True,False
16,2,1441.8873179999646,star,"(-480.0, 270.0)",0,1360.5591999948956,1098.2668999931775,True,False
16,2,1441.905984299956,star,"(-480.0, 270.0)",0,1379.2254999862053,1116.9331999844871,True,False
16,2,1441.9221048000036,star,"(-480.0, 270.0)",0,1395.3460000338964,1133.0537000321783,True,False
16,2,1441.93972689996,star,"(-480.0, 270.0)",0,1412.968099990394,1150.6757999886759,True,False
16,2,1441.9551142999553,star,"(-480.0, 270.0)",0,1428.3554999856278,1166.0631999839097,True,False
16,2,1441.9730063999887,star,"(-480.0, 270.0)",0,1446.2476000189781,1183.95530001726,True,False
16,2,1441.9890360999852,star,"(-480.0, 270.0)",0,1462.2773000155576,1199.9850000138395,True,False
16,2,1442.0059855,star,"(-480.0, 270.0)",0,1479.2267000302672,1216.9344000285491,True,False
16,2,1442.0213555999799,star,"(-480.0, 270.0)",0,1494.5968000101857,1232.3045000084676,True,False
16,2,1442.0388194000116,star,"(-480.0, 270.0)",0,1512.0606000418775,1249.7683000401594,True,False
16,2,1442.0530387999606,star,"(-480.0, 270.0)",0,1526.2799999909475,1263.9876999892294,True,False
16,2,1442.07267590001,star,"(-480.0, 270.0)",0,1545.917100040242,1283.624800038524,True,False
16,2,1442.0901073999703,star,"(-480.0, 270.0)",0,1563.3486000006087,1301.0562999988906,True,False
16,2,1442.1061225999729,star,"(-480.0, 270.0)",0,1579.3638000031933,1317.0715000014752,True,False
16,2,1442.121940299985,star,"(-480.0, 270.0)",0,1595.1815000153147,1332.8892000135966,True,False
16,2,1442.1397245000117,star,"(-480.0, 270.0)",0,1612.9657000419684,1350.6734000402503,True,False
16,2,1442.1554653999628,star,"(-480.0, 270.0)",0,1628.7065999931656,1366.4142999914475,True,False
16,2,1442.1732652999926,star,"(-480.0, 270.0)",0,1646.5065000229515,1384.2142000212334,True,False
16,2,1442.1891401999746,star,"(-480.0, 270.0)",0,1662.3814000049606,1400.0891000032425,True,False
16,2,1442.2026287000044,star,"(-480.0, 270.0)",0,1675.8699000347406,1413.5776000330225,True,False
16,2,1442.222491399967,star,"(-480.0, 270.0)",0,1695.7325999974273,1433.4402999957092,True,False
16,2,1442.236906200007,star,"(-480.0, 270.0)",0,1710.1474000373855,1447.8551000356674,True,False
16,2,1442.255589999957,star,"(-480.0, 270.0)",0,1728.8311999873258,1466.5388999856077,True,False
16,2,1442.2712608999573,star,"(-480.0, 270.0)",0,1744.502099987585,1482.209799985867,True,False
16,2,1442.2907302000094,star,"(-480.0, 270.0)",0,1763.9714000397362,1501.679100038018,True,False
16,2,1442.3052094999584,star,"(-480.0, 270.0)",0,1778.4506999887526,1516.1583999870345,True,False
16,2,1442.322663399973,star,"(-480.0, 270.0)",0,1795.9046000032686,1533.6123000015505,True,False
16,2,1442.3381311999983,star,"(-480.0, 270.0)",0,1811.372400028631,1549.080100026913,True,False
16,2,1442.352987399965,star,"(-480.0, 270.0)",0,1826.2285999953747,1563.9362999936566,True,False
16,2,1442.3730322999763,star,"(-480.0, 270.0)",0,1846.273500006646,1583.9812000049278,True,False
16,2,1442.3885133999866,star,"(-480.0, 270.0)",0,1861.7546000168659,1599.4623000151478,True,False
16,2,1442.4069124999805,star,"(-480.0, 270.0)",0,1880.153700010851,1617.861400009133,True,False
16,2,1442.4222485999926,star,"(-480.0, 270.0)",0,1895.489800022915,1633.197500021197,True,False
16,2,1442.4394254999934,star,"(-480.0, 270.0)",0,1912.666700023692,1650.374400021974,True,False
16,2,1442.4524691000115,star,"(-480.0, 270.0)",0,1925.7103000418283,1663.4180000401102,True,False
16,2,1442.4721799999825,star,"(-480.0, 270.0)",0,1945.4212000127882,1683.12890001107,True,False
16,2,1442.4884163999814,star,"(-480.0, 270.0)",0,1961.6576000116765,1699.3653000099584,True,False
16,2,1442.5054463999695,star,"(-480.0, 270.0)",0,1978.6875999998301,1716.395299998112,True,False
16,2,1442.5213228999637,star,"(-480.0, 270.0)",0,1994.5640999940224,1732.2717999923043,True,False
16,2,1442.5386118000024,star,"(-480.0, 270.0)",0,2011.8530000327155,1749.5607000309974,True,False
16,2,1442.555124000006,star,"(-480.0, 270.0)",0,2028.3652000362054,1766.0729000344872,True,False
16,2,1442.569287499995,star,"(-480.0, 270.0)",0,2042.5287000252865,1780.2364000235684,True,False
16,2,1442.5893673999817,star,"(-480.0, 270.0)",0,2062.6086000120267,1800.3163000103086,True,False
16,2,1447.6011362999561,star,"(-480.0, 270.0)",2213.09159998782,7074.37749998644,6812.085199984722,False,True
16,3,1447.8706925999722,star,"(-480.0, 270.0)",266.3528000121005,7343.93380000256,269.5563000161201,True,False
16,3,1447.8872487999615,star,"(-480.0, 270.0)",0,7360.489999991842,286.11250000540167,True,False
16,3,1447.9039345000056,star,"(-480.0, 270.0)",0,7377.1757000358775,302.7982000494376,True,False
16,3,1447.9175984999747,star,"(-480.0, 270.0)",0,7390.839700005017,316.4622000185773,True,False
16,3,1447.936805800011,star,"(-480.0, 270.0)",0,7410.0470000412315,335.66950005479157,True,False
16,3,1447.9509047999745,star,"(-480.0, 270.0)",0,7424.146000004839,349.7685000183992,True,False
16,3,1447.9675191999995,star,"(-480.0, 270.0)",0,7440.760400029831,366.3829000433907,True,False
16,3,1447.9869560999796,star,"(-480.0, 270.0)",0,7460.197300009895,385.8198000234552,True,False
16,3,1448.0007759999717,star,"(-480.0, 270.0)",0,7474.017200001981,399.63970001554117,True,False
16,3,1448.0208153999993,star,"(-480.0, 270.0)",0,7494.05660002958,419.67910004314035,True,False
16,3,1448.0342212999822,star,"(-480.0, 270.0)",0,7507.46250001248,433.0850000260398,True,False
16,3,1448.050174199976,star,"(-480.0, 270.0)",0,7523.415400006343,449.03790001990274,True,False
16,3,1448.0700403999654,star,"(-480.0, 270.0)",0,7543.28159999568,468.9041000092402,True,False
16,3,1448.0854476999957,star,"(-480.0, 270.0)",0,7558.688900026027,484.31140003958717,True,False
16,3,1448.1037563999998,star,"(-480.0, 270.0)",0,7576.997600030154,502.62010004371405,True,False
16,3,1448.1174358999706,star,"(-480.0, 270.0)",0,7590.677100000903,516.2996000144631,True,False
16,3,1448.1371816999745,star,"(-480.0, 270.0)",0,7610.422900004778,536.0454000183381,True,False
16,3,1448.150870399957,star,"(-480.0, 270.0)",0,7624.111599987373,549.7341000009328,True,False
16,3,1448.167504299956,star,"(-480.0, 270.0)",0,7640.745499986224,566.3679999997839,True,False
16,3,1448.186680999992,star,"(-480.0, 270.0)",0,7659.922200022265,585.5447000358254,True,False
16,3,1448.200497599959,star,"(-480.0, 270.0)",0,7673.7387999892235,599.3613000027835,True,False
16,3,1448.2209224000107,star,"(-480.0, 270.0)",0,7694.163600041065,619.7861000546254,True,False
16,3,1448.2335696999799,star,"(-480.0, 270.0)",0,7706.810900010169,632.4334000237286,True,False
16,3,1448.2511816999759,star,"(-480.0, 270.0)",0,7724.422900006175,650.0454000197351,True,False
16,3,1448.270197500009,star,"(-480.0, 270.0)",0,7743.438700039405,669.0612000529654,True,False
16,3,1448.2853289999766,star,"(-480.0, 270.0)",0,7758.570200006943,684.1927000205033,True,False
16,3,1448.3036460999865,star,"(-480.0, 270.0)",0,7776.887300016824,702.5098000303842,True,False
16,3,1448.3172520999797,star,"(-480.0, 270.0)",0,7790.4933000099845,716.1158000235446,True,False
16,3,1448.3364208999556,star,"(-480.0, 270.0)",0,7809.6620999858715,735.2845999994315,True,False
16,3,1448.350658499985,star,"(-480.0, 270.0)",0,7823.899700015318,749.5222000288777,True,False
16,3,1448.3673972999677,star,"(-480.0, 270.0)",0,7840.638499998022,766.2610000115819,True,False
16,3,1448.3865357000032,star,"(-480.0, 270.0)",0,7859.7769000334665,785.3994000470266,True,False
16,3,1448.4006666999776,star,"(-480.0, 270.0)",0,7873.907900007907,799.5304000214674,True,False
16,3,1448.4199411000009,star,"(-480.0, 270.0)",0,7893.182300031185,818.8048000447452,True,False
16,3,1448.434107100009,star,"(-480.0, 270.0)",0,7907.348300039303,832.9708000528626,True,False
16,3,1448.4506610999815,star,"(-480.0, 270.0)",0,7923.902300011832,849.5248000253923,True,False
16,3,1448.4702284999657,star,"(-480.0, 270.0)",0,7943.469699996058,869.092200009618,True,False
16,3,1448.4851895999745,star,"(-480.0, 270.0)",0,7958.430800004862,884.0533000184223,True,False
16,3,1448.503806599998,star,"(-480.0, 270.0)",0,7977.047800028231,902.670300041791,True,False
16,3,1448.5174928999622,star,"(-480.0, 270.0)",0,7990.734099992551,916.356600006111,True,False
16,3,1448.5366085999995,star,"(-480.0, 270.0)",0,8009.8498000297695,935.4723000433296,True,False
16,3,1448.5506079999614,star,"(-480.0, 270.0)",0,8023.849199991673,949.4717000052333,True,False
16,3,1448.5675662999856,star,"(-480.0, 270.0)",0,8040.807500015944,966.4300000295043,True,False
16,3,1448.5872091999627,star,"(-480.0, 270.0)",0,8060.4503999929875,986.0729000065476,True,False
16,3,1448.6008601000067,star,"(-480.0, 270.0)",0,8074.101300037,999.7238000505604,True,False
16,3,1448.6202458000043,star,"(-480.0, 270.0)",0,8093.487000034656,1019.1095000482164,True,False
16,3,1448.6337514999905,star,"(-480.0, 270.0)",0,8106.992700020783,1032.6152000343427,True,False
16,3,1448.6507225999958,star,"(-480.0, 270.0)",0,8123.963800026104,1049.586300039664,True,False
16,3,1448.6705198999844,star,"(-480.0, 270.0)",0,8143.761100014672,1069.3836000282317,True,False
16,3,1448.6851895999862,star,"(-480.0, 270.0)",0,8158.430800016504,1084.0533000300638,True,False
16,3,1448.7038890999975,star,"(-480.0, 270.0)",0,8177.130300027784,1102.752800041344,True,False
16,3,1448.717548399989,star,"(-480.0, 270.0)",0,8190.789600019343,1116.4121000329033,True,False
16,3,1448.7366212999914,star,"(-480.0, 270.0)",0,8209.8625000217,1135.4850000352599,True,False
16,3,1448.7506143999635,star,"(-480.0, 270.0)",0,8223.85559999384,1149.4781000074,True,False
16,3,1448.7671806999715,star,"(-480.0, 270.0)",0,8240.42190000182,1166.0444000153802,True,False
16,3,1448.7865435999702,star,"(-480.0, 270.0)",0,8259.784800000489,1185.4073000140488,True,False
16,3,1448.801232800004,star,"(-480.0, 270.0)",0,8274.474000034388,1200.0965000479482,True,False
16,3,1448.821675699961,star,"(-480.0, 270.0)",0,8294.916899991222,1220.5394000047818,True,False
16,3,1448.8359704999602,star,"(-480.0, 270.0)",0,8309.211699990556,1234.8342000041157,True,False
16,3,1448.8592126999865,star,"(-480.0, 270.0)",0,8332.453900016844,1258.0764000304043,True,False
16,3,1448.8775109999697,star,"(-480.0, 270.0)",0,8350.752199999988,1276.3747000135481,True,False
16,3,1448.8957457999932,star,"(-480.0, 270.0)",0,8368.98700002348,1294.6095000370406,True,False
16,3,1448.915196899965,star,"(-480.0, 270.0)",0,8388.438099995255,1314.0606000088155,True,False
16,3,1448.9375713999616,star,"(-480.0, 270.0)",0,8410.812599991914,1336.435100005474,True,False
16,3,1448.9506983999745,star,"(-480.0, 270.0)",0,8423.939600004815,1349.5621000183746,True,False
16,3,1448.9702510999632,star,"(-480.0, 270.0)",0,8443.492299993522,1369.1148000070825,True,False
16,3,1448.984020199976,star,"(-480.0, 270.0)",0,8457.261400006246,1382.8839000198059,True,False
16,3,1449.001255100011,star,"(-480.0, 270.0)",0,8474.49630004121,1400.11880005477,True,False
16,3,1449.0198458000086,star,"(-480.0, 270.0)",0,8493.08700003894,1418.7095000525005,True,False
16,3,1449.03509749996,star,"(-480.0, 270.0)",0,8508.338699990418,1433.9612000039779,True,False
16,3,1449.0538997999975,star,"(-480.0, 270.0)",0,8527.141000027768,1452.7635000413284,True,False
16,3,1449.0672861000057,star,"(-480.0, 270.0)",0,8540.527300036047,1466.1498000496067,True,False
16,3,1449.0841279999586,star,"(-480.0, 270.0)",0,8557.369199988898,1482.991700002458,True,False
16,3,1449.103704899957,star,"(-480.0, 270.0)",0,8576.946099987254,1502.5686000008136,True,False
16,3,1449.1184446999687,star,"(-480.0, 270.0)",0,8591.685899998993,1517.3084000125527,True,False
16,3,1449.136689100007,star,"(-480.0, 270.0)",0,8609.930300037377,1535.5528000509366,True,False
16,3,1449.150656099955,star,"(-480.0, 270.0)",0,8623.897299985401,1549.5197999989614,True,False
16,3,1449.1703903999878,star,"(-480.0, 270.0)",0,8643.631600018125,1569.254100031685,True,False
16,3,1449.1838953999686,star,"(-480.0, 270.0)",0,8657.136599998921,1582.7591000124812,True,False
16,3,1449.2016533999704,star,"(-480.0, 270.0)",0,8674.894600000698,1600.5171000142582,True,False
16,3,1449.2205166000058,star,"(-480.0, 270.0)",0,8693.75780003611,1619.38030004967,True,False
16,3,1449.2341939999606,star,"(-480.0, 270.0)",0,8707.435199990869,1633.0577000044286,True,False
16,3,1449.253813599993,star,"(-480.0, 270.0)",0,8727.054800023325,1652.6773000368848,True,False
16,3,1449.2669577999623,star,"(-480.0, 270.0)",0,8740.198999992572,1665.8215000061318,True,False
16,3,1449.2851448999718,star,"(-480.0, 270.0)",0,8758.386100002099,1684.0086000156589,True,False
16,3,1449.3035588999628,star,"(-480.0, 270.0)",0,8776.800099993125,1702.4226000066847,True,False
16,3,1449.3181769999792,star,"(-480.0, 270.0)",0,8791.418200009502,1717.0407000230625,True,False
16,3,1449.3373248999706,star,"(-480.0, 270.0)",0,8810.56610000087,1736.1886000144295,True,False
16,3,1449.350612099981,star,"(-480.0, 270.0)",0,8823.853300011251,1749.4758000248112,True,False
16,3,1449.3674747999758,star,"(-480.0, 270.0)",0,8840.716000006068,1766.3385000196286,True,False
16,3,1449.3875899999985,star,"(-480.0, 270.0)",0,8860.83120002877,1786.4537000423297,True,False
16,3,1451.6002554000006,cross,"(480.0, -270.0)",264.1877999994904,11073.496600030921,3999.1191000444815,False,True
16,4,1453.9185595999588,t,"(480.0, 270.0)",267.32299994910136,13391.800799989142,2318.30419995822,False,True
