trial_num,selection_num,timestamp,shape,position,fixation_duration_ms,rt_from_trial_start_ms,rt_from_previous_selection_ms,queued_selection,was_executed
13,1,1059.3301638999837,circle,"(-480.0, -270.0)",250.08309999248013,1429.511399997864,1429.511399997864,False,True
13,2,1059.8302216999582,circle,"(-480.0, -270.0)",497.1600999706425,1929.5691999723203,500.05779997445643,True,False
13,2,1059.851505699975,circle,"(-480.0, -270.0)",0,1950.8531999890693,521.3417999912053,True,False
13,2,1059.864380599989,circle,"(-480.0, -270.0)",0,1963.728100003209,534.216700005345,True,False
13,2,1059.8838561999728,circle,"(-480.0, -270.0)",0,1983.203699986916,553.6922999890521,True,False
13,2,1059.8978893999592,circle,"(-480.0, -270.0)",0,1997.236899973359,567.725499975495,True,False
13,2,1059.9133390999632,circle,"(-480.0, -270.0)",0,2012.6865999773145,583.1751999794506,True,False
13,2,1059.9301939999568,circle,"(-480.0, -270.0)",0,2029.5414999709465,600.0300999730825,True,False
13,2,1059.9469191999524,circle,"(-480.0, -270.0)",0,2046.266699966509,616.755299968645,True,False
13,2,1059.9636937999749,circle,"(-480.0, -270.0)",0,2063.0412999889813,633.5298999911174,True,False
13,2,1059.9809639999876,circle,"(-480.0, -270.0)",0,2080.3115000016987,650.8001000038348,True,False
13,2,1059.9975273999735,circle,"(-480.0, -270.0)",0,2096.874899987597,667.3634999897331,True,False
13,2,1060.0140879999963,circle,"(-480.0, -270.0)",0,2113.4355000103824,683.9241000125185,True,False
13,2,1060.0306197999744,circle,"(-480.0, -270.0)",0,2129.9672999884933,700.4558999906294,True,False
13,2,1060.046641199966,circle,"(-480.0, -270.0)",0,2145.98869998008,716.4772999822162,True,False
13,2,1060.063052899961,circle,"(-480.0, -270.0)",0,2162.400399975013,732.8889999771491,True,False
13,2,1060.080359399959,circle,"(-480.0, -270.0)",0,2179.706899973098,750.1954999752343,True,False
13,2,1060.0967977999826,circle,"(-480.0, -270.0)",0,2196.145299996715,766.6338999988511,True,False
13,2,1060.113552099967,circle,"(-480.0, -270.0)",0,2212.8995999810286,783.3881999831647,True,False
13,2,1060.1301197999856,circle,"(-480.0, -270.0)",0,2229.467299999669,799.9559000018053,True,False
13,2,1060.1467304999824,circle,"(-480.0, -270.0)",0,2246.077999996487,816.5665999986231,True,False
13,2,1060.1639218999771,circle,"(-480.0, -270.0)",0,2263.269399991259,833.7579999933951,True,False
13,2,1060.1800319999456,circle,"(-480.0, -270.0)",0,2279.3794999597594,849.8680999618955,True,False
13,2,1060.1973929999513,circle,"(-480.0, -270.0)",0,2296.740499965381,867.229099967517,True,False
13,2,1060.2139436999569,circle,"(-480.0, -270.0)",0,2313.2911999709904,883.7797999731265,True,False
13,2,1060.2308567999862,circle,"(-480.0, -270.0)",0,2330.2043000003323,900.6929000024684,True,False
13,2,1060.2465177999693,circle,"(-480.0, -270.0)",0,2345.8652999834158,916.3538999855518,True,False
13,2,1060.2635599999921,circle,"(-480.0, -270.0)",0,2362.9075000062585,933.3961000083946,True,False
13,2,1060.2808281999896,circle,"(-480.0, -270.0)",0,2380.175700003747,950.664300005883,True,False
13,2,1060.2969715999789,circle,"(-480.0, -270.0)",0,2396.3190999929793,966.8076999951154,True,False
13,2,1060.3127525000018,circle,"(-480.0, -270.0)",0,2412.1000000159256,982.5886000180617,True,False
13,2,1060.329840899969,circle,"(-480.0, -270.0)",0,2429.1883999831043,999.6769999852404,True,False
13,2,1060.3470094999648,circle,"(-480.0, -270.0)",0,2446.356999978889,1016.8455999810249,True,False
13,2,1060.3633338999934,circle,"(-480.0, -270.0)",0,2462.6814000075683,1033.1700000097044,True,False
13,2,1060.3797953999601,circle,"(-480.0, -270.0)",0,2479.1428999742493,1049.6314999763854,True,False
13,2,1060.3963215999538,circle,"(-480.0, -270.0)",0,2495.6690999679267,1066.1576999700628,True,False
13,2,1060.4128267999622,circle,"(-480.0, -270.0)",0,2512.174299976323,1082.6628999784589,True,False
13,2,1060.4304266999825,circle,"(-480.0, -270.0)",0,2529.7741999966092,1100.2627999987453,True,False
13,2,1060.4463578999857,circle,"(-480.0, -270.0)",0,2545.7053999998607,1116.1940000019968,True,False
13,2,1060.4631724999635,circle,"(-480.0, -270.0)",0,2562.519999977667,1133.008599979803,True,False
13,2,1060.480861799966,circle,"(-480.0, -270.0)",0,2580.209299980197,1150.6978999823332,True,False
13,2,1060.4959766999818,circle,"(-480.0, -270.0)",0,2595.3241999959573,1165.8127999980934,True,False
13,2,1060.5131581999594,circle,"(-480.0, -270.0)",0,2612.5056999735534,1182.9942999756895,True,False
13,2,1060.5301230999758,circle,"(-480.0, -270.0)",0,2629.4705999898724,1199.9591999920085,True,False
13,2,1060.5465983999893,circle,"(-480.0, -270.0)",0,2645.945900003426,1216.4345000055619,True,False
13,2,1060.5632214999641,circle,"(-480.0, -270.0)",0,2662.568999978248,1233.057599980384,True,False
13,2,1060.5797910999972,circle,"(-480.0, -270.0)",0,2679.138600011356,1249.6272000134923,True,False
13,2,1060.596174199949,circle,"(-480.0, -270.0)",0,2695.5216999631375,1266.0102999652736,True,False
13,2,1060.6129881999805,circle,"(-480.0, -270.0)",0,2712.3356999945827,1282.8242999967188,True,False
13,2,1060.6307326999959,circle,"(-480.0, -270.0)",0,2730.0802000099793,1300.5688000121154,True,False
13,2,1060.6462036999874,circle,"(-480.0, -270.0)",0,2745.5512000015005,1316.0398000036366,True,False
13,2,1060.6631631999626,circle,"(-480.0, -270.0)",0,2762.5106999767013,1332.9992999788374,True,False
13,2,1060.6804410999757,circle,"(-480.0, -270.0)",0,2779.7885999898426,1350.2771999919787,True,False
13,2,1060.69657119998,circle,"(-480.0, -270.0)",0,2795.9186999942176,1366.4072999963537,True,False
13,2,1060.7126484999899,circle,"(-480.0, -270.0)",0,2811.996000004001,1382.484600006137,True,False
13,2,1060.7294982000021,circle,"(-480.0, -270.0)",0,2828.8457000162452,1399.3343000183813,True,False
13,2,1060.746119199961,circle,"(-480.0, -270.0)",0,2845.466699975077,1415.9552999772131,True,False
13,2,1060.763005899964,circle,"(-480.0, -270.0)",0,2862.3533999780193,1432.8419999801554,True,False
13,2,1060.7853202999686,circle,"(-480.0, -270.0)",0,2884.667799982708,1455.156399984844,True,False
13,2,1060.7995521999546,circle,"(-480.0, -270.0)",0,2898.8996999687515,1469.3882999708876,True,False
13,2,1060.813323999988,circle,"(-480.0, -270.0)",0,2912.671500002034,1483.16010000417,True,False
13,2,1060.8295927,circle,"(-480.0, -270.0)",0,2928.94020001404,1499.428800016176,True,False
13,2,1060.8460459999624,circle,"(-480.0, -270.0)",0,2945.3934999764897,1515.8820999786258,True,False
13,2,1060.8637606999837,circle,"(-480.0, -270.0)",0,2963.108199997805,1533.5967999999411,True,False
13,2,1060.880595900002,circle,"(-480.0, -270.0)",0,2979.9434000160545,1550.4320000181906,True,False
13,2,1060.8965285999584,circle,"(-480.0, -270.0)",0,2995.87609997252,1566.364699974656,True,False
13,2,1060.9130596999894,circle,"(-480.0, -270.0)",0,3012.4072000035085,1582.8958000056446,True,False
13,2,1060.9300350999692,circle,"(-480.0, -270.0)",0,3029.3825999833643,1599.8711999855004,True,False
13,2,1060.9471040999633,circle,"(-480.0, -270.0)",0,3046.451599977445,1616.940199979581,True,False
13,2,1060.962582499953,circle,"(-480.0, -270.0)",0,3061.9299999671057,1632.4185999692418,True,False
13,2,1060.9793407999678,circle,"(-480.0, -270.0)",0,3078.688299981877,1649.1768999840133,True,False
13,2,1060.9961790999514,circle,"(-480.0, -270.0)",0,3095.526599965524,1666.01519996766,True,False
13,2,1061.0129936999874,circle,"(-480.0, -270.0)",0,3112.341200001538,1682.8298000036739,True,False
13,2,1061.0296333999722,circle,"(-480.0, -270.0)",0,3128.9808999863453,1699.4694999884814,True,False
13,2,1061.0464959999663,circle,"(-480.0, -270.0)",0,3145.8434999804012,1716.3320999825373,True,False
13,2,1061.063129999966,circle,"(-480.0, -270.0)",0,3162.477499980014,1732.96609998215,True,False
13,2,1061.0800197999924,circle,"(-480.0, -270.0)",0,3179.367300006561,1749.855900008697,True,False
13,2,1061.0962418999989,circle,"(-480.0, -270.0)",0,3195.5894000129774,1766.0780000151135,True,False
13,2,1061.1131225999561,circle,"(-480.0, -270.0)",0,3212.4700999702327,1782.9586999723688,True,False
13,2,1061.1295775999897,circle,"(-480.0, -270.0)",0,3228.925100003835,1799.413700005971,True,False
13,2,1061.6458359999815,circle,"(-480.0, -270.0)",1792.6030000089668,3745.183499995619,2315.672099997755,False,True
13,3,1062.1461425999878,circle,"(-480.0, -270.0)",497.3047000239603,4245.490100001916,500.30660000629723,True,False
13,3,1062.1653726999648,circle,"(-480.0, -270.0)",0,4264.72019997891,519.5366999832913,True,False
13,3,1062.1791578999837,circle,"(-480.0, -270.0)",0,4278.505399997812,533.3219000021927,True,False
13,3,1062.1958930999972,circle,"(-480.0, -270.0)",0,4295.2406000113115,550.0571000156924,True,False
13,3,1062.2124306999613,circle,"(-480.0, -270.0)",0,4311.778199975379,566.5946999797598,True,False
13,3,1062.2293533999473,circle,"(-480.0, -270.0)",0,4328.7008999614045,583.5173999657854,True,False
13,3,1062.2456450999598,circle,"(-480.0, -270.0)",0,4344.992599973921,599.8090999783017,True,False
13,3,1062.2627212999505,circle,"(-480.0, -270.0)",0,4362.068799964618,616.8852999689989,True,False
13,3,1062.2797473999672,circle,"(-480.0, -270.0)",0,4379.094899981283,633.9113999856636,True,False
13,3,1062.2961335,circle,"(-480.0, -270.0)",0,4395.481000014115,650.2975000184961,True,False
13,3,1062.3124133999809,circle,"(-480.0, -270.0)",0,4411.760899994988,666.5773999993689,True,False
13,3,1062.3293405000004,circle,"(-480.0, -270.0)",0,4428.6880000145175,683.5045000188984,True,False
13,3,1062.3469700999558,circle,"(-480.0, -270.0)",0,4446.317599969916,701.134099974297,True,False
13,3,1062.3636928999913,circle,"(-480.0, -270.0)",0,4463.040400005411,717.8569000097923,True,False
13,3,1062.3806201999541,circle,"(-480.0, -270.0)",0,4479.967699968256,734.784199972637,True,False
13,3,1062.3974141999497,circle,"(-480.0, -270.0)",0,4496.761699963827,751.5781999682076,True,False
13,3,1062.4123769999715,circle,"(-480.0, -270.0)",0,4511.724499985576,766.5409999899566,True,False
13,3,1062.4291549999616,circle,"(-480.0, -270.0)",0,4528.50249997573,783.3189999801107,True,False
13,3,1062.4456971999607,circle,"(-480.0, -270.0)",0,4545.044699974824,799.8611999792047,True,False
13,3,1062.4626626999816,circle,"(-480.0, -270.0)",0,4562.010199995711,816.8267000000924,True,False
13,3,1062.479187299963,circle,"(-480.0, -270.0)",0,4578.534799977206,833.3512999815866,True,False
13,3,1062.4957273999462,circle,"(-480.0, -270.0)",0,4595.074899960309,849.8913999646902,True,False
13,3,1062.5127523999545,circle,"(-480.0, -270.0)",0,4612.099899968598,866.916399972979,True,False
13,3,1062.5297115999856,circle,"(-480.0, -270.0)",0,4629.059099999722,883.875600004103,True,False
13,3,1062.5462263999507,circle,"(-480.0, -270.0)",0,4645.573899964802,900.3903999691829,True,False
13,3,1062.5638970999862,circle,"(-480.0, -270.0)",0,4663.244600000326,918.0611000047065,True,False
13,3,1062.5798880999791,circle,"(-480.0, -270.0)",0,4679.235599993262,934.0520999976434,True,False
13,3,1062.5959917999571,circle,"(-480.0, -270.0)",0,4695.339299971238,950.1557999756187,True,False
13,3,1062.6131490999833,circle,"(-480.0, -270.0)",0,4712.496599997394,967.3131000017747,True,False
13,3,1062.6290861999732,circle,"(-480.0, -270.0)",0,4728.433699987363,983.250199991744,True,False
13,3,1062.6458157000015,circle,"(-480.0, -270.0)",0,4745.163200015668,999.9797000200488,True,False
13,3,1062.662733599951,circle,"(-480.0, -270.0)",0,4762.081099965144,1016.8975999695249,True,False
13,3,1062.6795229999698,circle,"(-480.0, -270.0)",0,4778.870499983896,1033.6869999882765,True,False
13,3,1062.695964399958,circle,"(-480.0, -270.0)",0,4795.311899972148,1050.1283999765292,True,False
13,3,1062.7179530999856,circle,"(-480.0, -270.0)",0,4817.300599999726,1072.1171000041068,True,False
13,3,1062.7317037999746,circle,"(-480.0, -270.0)",0,4831.051299988758,1085.8677999931388,True,False
13,3,1062.7460979999742,circle,"(-480.0, -270.0)",0,4845.445499988273,1100.2619999926537,True,False
13,3,1062.7624796999735,circle,"(-480.0, -270.0)",0,4861.8271999876015,1116.6436999919824,True,False
13,3,1062.779771499976,circle,"(-480.0, -270.0)",0,4879.118999990169,1133.93549999455,True,False
13,3,1062.7964778999449,circle,"(-480.0, -270.0)",0,4895.825399958994,1150.6418999633752,True,False
13,3,1062.8128512999974,circle,"(-480.0, -270.0)",0,4912.198800011538,1167.015300015919,True,False
13,3,1062.8296470999485,circle,"(-480.0, -270.0)",0,4928.994599962607,1183.811099966988,True,False
13,3,1062.8460696999682,circle,"(-480.0, -270.0)",0,4945.41719998233,1200.2336999867111,True,False
13,3,1062.8631989999558,circle,"(-480.0, -270.0)",0,4962.546499969903,1217.3629999742843,True,False
13,3,1062.878962799965,circle,"(-480.0, -270.0)",0,4978.310299979057,1233.126799983438,True,False
13,3,1062.895961000002,circle,"(-480.0, -270.0)",0,4995.308500016108,1250.125000020489,True,False
13,3,1062.9127840999863,circle,"(-480.0, -270.0)",0,5012.13160000043,1266.9481000048108,True,False
13,3,1062.9293083999655,circle,"(-480.0, -270.0)",0,5028.65589997964,1283.4723999840207,True,False
13,3,1062.9457498999545,circle,"(-480.0, -270.0)",0,5045.097399968654,1299.9138999730349,True,False
13,3,1062.962397999945,circle,"(-480.0, -270.0)",0,5061.7454999592155,1316.5619999635965,True,False
13,3,1062.98008759995,circle,"(-480.0, -270.0)",0,5079.43509996403,1334.251599968411,True,False
13,3,1062.9958556999918,circle,"(-480.0, -270.0)",0,5095.203200005926,1350.0197000103071,True,False
13,3,1063.0130603999714,circle,"(-480.0, -270.0)",0,5112.407899985556,1367.2243999899365,True,False
13,3,1063.029349599965,circle,"(-480.0, -270.0)",0,5128.697099979036,1383.5135999834165,True,False
13,3,1063.0462507999619,circle,"(-480.0, -270.0)",0,5145.598299975973,1400.4147999803536,True,False
13,3,1063.0627434999915,circle,"(-480.0, -270.0)",0,5162.091000005603,1416.9075000099838,True,False
13,3,1063.0799011999625,circle,"(-480.0, -270.0)",0,5179.248699976597,1434.065199980978,True,False
13,3,1063.0953602999798,circle,"(-480.0, -270.0)",0,5194.707799993921,1449.524299998302,True,False
13,3,1063.1124253000016,circle,"(-480.0, -270.0)",0,5211.772800015751,1466.5893000201322,True,False
13,3,1063.129030299955,circle,"(-480.0, -270.0)",0,5228.3777999691665,1483.1942999735475,True,False
13,3,1063.1458557999576,circle,"(-480.0, -270.0)",0,5245.203299971763,1500.019799976144,True,False
13,3,1063.1623753999593,circle,"(-480.0, -270.0)",0,5261.7228999733925,1516.5393999777734,True,False
13,3,1063.179056999972,circle,"(-480.0, -270.0)",0,5278.404499986209,1533.22099999059,True,False
13,3,1063.195793299994,circle,"(-480.0, -270.0)",0,5295.140800008085,1549.9573000124656,True,False
13,3,1063.2124031999847,circle,"(-480.0, -270.0)",0,5311.750699998811,1566.5672000031918,True,False
13,3,1063.2292753999936,circle,"(-480.0, -270.0)",0,5328.622900007758,1583.4394000121392,True,False
13,3,1063.2464968999848,circle,"(-480.0, -270.0)",0,5345.844399998896,1600.6609000032768,True,False
13,3,1063.262758799945,circle,"(-480.0, -270.0)",0,5362.106299959123,1616.922799963504,True,False
13,3,1063.2798471999704,circle,"(-480.0, -270.0)",0,5379.1946999845095,1634.0111999888904,True,False
13,3,1063.2961009999854,circle,"(-480.0, -270.0)",0,5395.448499999475,1650.2650000038557,True,False
13,3,1063.3139793999726,circle,"(-480.0, -270.0)",0,5413.326899986714,1668.143399991095,True,False
13,3,1063.3299472999643,circle,"(-480.0, -270.0)",0,5429.294799978379,1684.11129998276,True,False
13,3,1063.3458182999748,circle,"(-480.0, -270.0)",0,5445.165799988899,1699.9822999932803,True,False
13,3,1063.3624537999858,circle,"(-480.0, -270.0)",0,5461.801299999934,1716.6178000043146,True,False
13,3,1063.3794082999812,circle,"(-480.0, -270.0)",0,5478.75579999527,1733.5722999996506,True,False
13,3,1063.3958230999997,circle,"(-480.0, -270.0)",0,5495.170600013807,1749.9871000181884,True,False
13,3,1063.4125902999658,circle,"(-480.0, -270.0)",0,5511.937799979933,1766.7542999843135,True,False
13,3,1063.4293387999642,circle,"(-480.0, -270.0)",0,5528.68629997829,1783.5027999826707,True,False
13,3,1063.945319099992,circle,"(-480.0, -270.0)",1777.8650000109337,6044.666600006167,2299.483100010548,False,True
13,4,1066.249185499968,circle,"(-480.0, -270.0)",2300.4023999674246,8348.532999982126,2303.866399975959,False,True
14,1,1072.5763694999623,circle,"(-480.0, -270.0)",250.31360000139102,2495.6577999982983,2495.6577999982983,False,True
14,2,1073.9769148999476,circle,"(-480.0, -270.0)",250.2292999997735,3896.2031999835745,1400.5453999852762,True,False
14,2,1073.9963072999963,circle,"(-480.0, -270.0)",0,3915.5956000322476,1419.9378000339493,True,False
14,2,1074.0103197999997,circle,"(-480.0, -270.0)",0,3929.6081000356935,1433.9503000373952,True,False
14,2,1074.0261795999832,circle,"(-480.0, -270.0)",0,3945.467900019139,1449.8101000208408,True,False
14,2,1074.0433353999979,circle,"(-480.0, -270.0)",0,3962.6237000338733,1466.965900035575,True,False
14,2,1074.0596757999738,circle,"(-480.0, -270.0)",0,3978.9641000097618,1483.3063000114635,True,False
14,2,1074.0764857999748,circle,"(-480.0, -270.0)",0,3995.774100010749,1500.1163000124507,True,False
14,2,1074.093111199967,circle,"(-480.0, -270.0)",0,4012.3995000030845,1516.7417000047863,True,False
14,2,1074.1096120000002,circle,"(-480.0, -270.0)",0,4028.9003000361845,1533.2425000378862,True,False
14,2,1074.1262826999882,circle,"(-480.0, -270.0)",0,4045.5710000242107,1549.9132000259124,True,False
14,2,1074.1440183999948,circle,"(-480.0, -270.0)",0,4063.3067000308074,1567.6489000325091,True,False
14,2,1074.1592911999905,circle,"(-480.0, -270.0)",0,4078.5795000265352,1582.921700028237,True,False
14,2,1074.1773118999554,circle,"(-480.0, -270.0)",0,4096.6001999913715,1600.9423999930732,True,False
14,2,1074.1936687999987,circle,"(-480.0, -270.0)",0,4112.957100034691,1617.299300036393,True,False
14,2,1074.2098906999454,circle,"(-480.0, -270.0)",0,4129.178999981377,1633.521199983079,True,False
14,2,1074.2320793999825,circle,"(-480.0, -270.0)",0,4151.367700018454,1655.709900020156,True,False
14,2,1074.2461028999533,circle,"(-480.0, -270.0)",0,4165.391199989244,1669.733399990946,True,False
14,2,1074.2606386999832,circle,"(-480.0, -270.0)",0,4179.927000019234,1684.2692000209354,True,False
14,2,1074.2766325999983,circle,"(-480.0, -270.0)",0,4195.920900034253,1700.2631000359543,True,False
14,2,1074.292832499952,circle,"(-480.0, -270.0)",0,4212.120799988043,1716.4629999897443,True,False
14,2,1074.3094450999633,circle,"(-480.0, -270.0)",0,4228.733399999328,1733.0756000010297,True,False
14,2,1074.3261120999814,circle,"(-480.0, -270.0)",0,4245.400400017388,1749.7426000190899,True,False
14,2,1074.343430399953,circle,"(-480.0, -270.0)",0,4262.718699988909,1767.0608999906108,True,False
14,2,1074.8590178999584,circle,"(-480.0, -270.0)",860.728100000415,4778.306199994404,2282.6483999961056,False,True
14,3,1075.3595603999565,circle,"(-480.0, -270.0)",496.862499974668,5278.848699992523,500.5424999981187,True,False
14,3,1075.37845129997,circle,"(-480.0, -270.0)",0,5297.739600006025,519.4334000116214,True,False
14,3,1075.3924678999465,circle,"(-480.0, -270.0)",0,5311.756199982483,533.4499999880791,True,False
14,3,1075.408948700002,circle,"(-480.0, -270.0)",0,5328.237000037916,549.9308000435121,True,False
14,3,1075.4256250999752,circle,"(-480.0, -270.0)",0,5344.913400011137,566.6072000167333,True,False
14,3,1075.4422574999626,circle,"(-480.0, -270.0)",0,5361.5457999985665,583.2396000041626,True,False
14,3,1075.4589885000023,circle,"(-480.0, -270.0)",0,5378.276800038293,599.9706000438891,True,False
14,3,1075.475948199979,circle,"(-480.0, -270.0)",0,5395.236500015017,616.9303000206128,True,False
14,3,1075.4922001999803,circle,"(-480.0, -270.0)",0,5411.488500016276,633.1823000218719,True,False
14,3,1075.5088774999604,circle,"(-480.0, -270.0)",0,5428.16579999635,649.8596000019461,True,False
14,3,1075.5247862999677,circle,"(-480.0, -270.0)",0,5444.07460000366,665.7684000092559,True,False
14,3,1075.54277,circle,"(-480.0, -270.0)",0,5462.058300036006,683.7521000416018,True,False
14,3,1075.5596895999624,circle,"(-480.0, -270.0)",0,5478.977899998426,700.6717000040226,True,False
14,3,1075.575975099986,circle,"(-480.0, -270.0)",0,5495.2634000219405,716.9572000275366,True,False
14,3,1075.592540099984,circle,"(-480.0, -270.0)",0,5511.828400020022,733.5222000256181,True,False
14,3,1075.6091824999894,circle,"(-480.0, -270.0)",0,5528.470800025389,750.1646000309847,True,False
14,3,1075.625360899954,circle,"(-480.0, -270.0)",0,5544.64919999009,766.3429999956861,True,False
14,3,1075.6418375999783,circle,"(-480.0, -270.0)",0,5561.125900014304,782.8197000198998,True,False
14,3,1075.65904889995,circle,"(-480.0, -270.0)",0,5578.337199985981,800.0309999915771,True,False
14,3,1075.6754552999628,circle,"(-480.0, -270.0)",0,5594.743599998765,816.4374000043608,True,False
14,3,1075.6922950999578,circle,"(-480.0, -270.0)",0,5611.583399993833,833.2771999994293,True,False
14,3,1075.7091144999722,circle,"(-480.0, -270.0)",0,5628.402800008189,850.0966000137851,True,False
14,3,1075.7255625999533,circle,"(-480.0, -270.0)",0,5644.850899989251,866.5446999948472,True,False
14,3,1075.7423824999714,circle,"(-480.0, -270.0)",0,5661.670800007414,883.3646000130102,True,False
14,3,1075.759380799951,circle,"(-480.0, -270.0)",0,5678.669099987019,900.362899992615,True,False
14,3,1075.7747512999922,circle,"(-480.0, -270.0)",0,5694.039600028191,915.7334000337869,True,False
14,3,1075.7923439999577,circle,"(-480.0, -270.0)",0,5711.632299993653,933.326099999249,True,False
14,3,1075.8095988999703,circle,"(-480.0, -270.0)",0,5728.887200006284,950.58100001188,True,False
14,3,1075.8260331999627,circle,"(-480.0, -270.0)",0,5745.321499998681,967.0153000042774,True,False
14,3,1075.8461773999734,circle,"(-480.0, -270.0)",0,5765.465700009372,987.1595000149682,True,False
14,3,1075.8656866999809,circle,"(-480.0, -270.0)",0,5784.975000016857,1006.6688000224531,True,False
14,3,1075.9059101999737,circle,"(-480.0, -270.0)",0,5825.198500009719,1046.8923000153154,True,False
14,3,1075.9368087999756,circle,"(-480.0, -270.0)",0,5856.097100011539,1077.7909000171348,True,False
14,3,1075.962454399967,circle,"(-480.0, -270.0)",0,5881.7427000030875,1103.4365000086837,True,False
14,3,1075.9806109999772,circle,"(-480.0, -270.0)",0,5899.899300013203,1121.5931000187993,True,False
14,3,1075.9975834999932,circle,"(-480.0, -270.0)",0,5916.871800029185,1138.5656000347808,True,False
14,3,1076.0257461,circle,"(-480.0, -270.0)",0,5945.034400036093,1166.728200041689,True,False
14,3,1076.0434689999674,circle,"(-480.0, -270.0)",0,5962.757300003432,1184.4511000090279,True,False
14,3,1076.0596174999955,circle,"(-480.0, -270.0)",0,5978.905800031498,1200.5996000370942,True,False
14,3,1076.0762366999988,circle,"(-480.0, -270.0)",0,5995.5250000348315,1217.2188000404276,True,False
14,3,1076.091894299956,circle,"(-480.0, -270.0)",0,6011.182599992026,1232.8763999976218,True,False
14,3,1076.1097555999877,circle,"(-480.0, -270.0)",0,6029.04390002368,1250.7377000292763,True,False
14,3,1076.124421699962,circle,"(-480.0, -270.0)",0,6043.7099999981,1265.4038000036962,True,False
14,3,1076.1428728999454,circle,"(-480.0, -270.0)",0,6062.161199981347,1283.8549999869429,True,False
14,3,1076.1576843999792,circle,"(-480.0, -270.0)",0,6076.972700015176,1298.6665000207722,True,False
14,3,1076.1763327999506,circle,"(-480.0, -270.0)",0,6095.621099986602,1317.3148999921978,True,False
14,3,1076.1915540999616,circle,"(-480.0, -270.0)",0,6110.842399997637,1332.5362000032328,True,False
14,3,1076.2091450999724,circle,"(-480.0, -270.0)",0,6128.433400008362,1350.127200013958,True,False
14,3,1076.2256424999796,circle,"(-480.0, -270.0)",0,6144.9308000155725,1366.6246000211686,True,False
14,3,1076.2436795999529,circle,"(-480.0, -270.0)",0,6162.967899988871,1384.6616999944672,True,False
14,3,1076.259458299959,circle,"(-480.0, -270.0)",0,6178.7465999950655,1400.4404000006616,True,False
14,3,1076.2772816999932,circle,"(-480.0, -270.0)",0,6196.570000029169,1418.2638000347652,True,False
14,3,1076.2926009999937,circle,"(-480.0, -270.0)",0,6211.889300029725,1433.583100035321,True,False
14,3,1076.3093803999946,circle,"(-480.0, -270.0)",0,6228.668700030539,1450.3625000361353,True,False
14,3,1076.325655099994,circle,"(-480.0, -270.0)",0,6244.943400030024,1466.6372000356205,True,False
14,3,1076.3434810999897,circle,"(-480.0, -270.0)",0,6262.769400025718,1484.463200031314,True,False
14,3,1076.359059999988,circle,"(-480.0, -270.0)",0,6278.348300023936,1500.0421000295319,True,False
14,3,1076.3758532999782,circle,"(-480.0, -270.0)",0,6295.141600014176,1516.8354000197724,True,False
14,3,1076.3918626999948,circle,"(-480.0, -270.0)",0,6311.151000030804,1532.8448000364006,True,False
14,3,1076.4096333999769,circle,"(-480.0, -270.0)",0,6328.92170001287,1550.6155000184663,True,False
14,3,1076.4251640999573,circle,"(-480.0, -270.0)",0,6344.452399993315,1566.1461999989115,True,False
14,3,1076.4421875999542,circle,"(-480.0, -270.0)",0,6361.475899990182,1583.1696999957785,True,False
14,3,1076.4580134999705,circle,"(-480.0, -270.0)",0,6377.301800006535,1598.995600012131,True,False
14,3,1076.4764218999771,circle,"(-480.0, -270.0)",0,6395.710200013127,1617.4040000187233,True,False
14,3,1076.4918998999638,circle,"(-480.0, -270.0)",0,6411.188199999742,1632.8820000053383,True,False
14,3,1076.5098908999935,circle,"(-480.0, -270.0)",0,6429.179200029466,1650.8730000350624,True,False
14,3,1076.525740299956,circle,"(-480.0, -270.0)",0,6445.028599991929,1666.722399997525,True,False
14,3,1076.5435801999993,circle,"(-480.0, -270.0)",0,6462.868500035256,1684.5623000408523,True,False
14,3,1076.5592537999619,circle,"(-480.0, -270.0)",0,6478.542099997867,1700.235900003463,True,False
14,3,1076.5759279999766,circle,"(-480.0, -270.0)",0,6495.216300012544,1716.91010001814,True,False
14,3,1076.5916853999952,circle,"(-480.0, -270.0)",0,6510.9737000311725,1732.6675000367686,True,False
14,3,1076.6094013999682,circle,"(-480.0, -270.0)",0,6528.689700004179,1750.3835000097752,True,False
14,3,1076.6250875999685,circle,"(-480.0, -270.0)",0,6544.375900004525,1766.0697000101209,True,False
14,3,1076.6422406999627,circle,"(-480.0, -270.0)",0,6561.5289999987,1783.222800004296,True,False
14,3,1076.6580658999737,circle,"(-480.0, -270.0)",0,6577.354200009722,1799.0480000153184,True,False
14,3,1078.0753996999701,cross,"(480.0, -270.0)",250.14409999130294,7994.688000006136,3216.3818000117317,False,True
14,4,1082.3564600999816,t,"(480.0, 270.0)",265.63720003468916,12275.74840001762,4281.060400011484,False,True
15,1,1086.6382108999533,cross,"(480.0, -270.0)",251.35279999813065,412.340699986089,412.340699986089,False,True
15,2,1087.1395517999772,cross,"(480.0, -270.0)",497.4911999888718,913.6816000100225,501.3409000239335,True,False
15,2,1087.1584309999598,cross,"(480.0, -270.0)",0,932.5607999926433,520.2201000065543,True,False
15,2,1087.1741865999647,cross,"(480.0, -270.0)",0,948.3163999975659,535.9757000114769,True,False
15,2,1087.187805900001,cross,"(480.0, -270.0)",0,961.9357000337914,549.5950000477023,True,False
15,2,1087.206257599988,cross,"(480.0, -270.0)",0,980.3874000208452,568.0467000347562,True,False
15,2,1087.2204746999778,cross,"(480.0, -270.0)",0,994.6045000106096,582.2638000245206,True,False
15,2,1087.2384686999721,cross,"(480.0, -270.0)",0,1012.5985000049695,600.2578000188805,True,False
15,2,1087.2541601999546,cross,"(480.0, -270.0)",0,1028.2899999874644,615.9493000013754,True,False
15,2,1087.2727200999507,cross,"(480.0, -270.0)",0,1046.8498999834992,634.5091999974102,True,False
15,2,1087.2870456999517,cross,"(480.0, -270.0)",0,1061.1754999845289,648.8347999984398,True,False
15,2,1087.3057601999608,cross,"(480.0, -270.0)",0,1079.8899999936111,667.5493000075221,True,False
15,2,1087.321104099974,cross,"(480.0, -270.0)",0,1095.2339000068605,682.8932000207715,True,False
15,2,1087.3389136999613,cross,"(480.0, -270.0)",0,1113.0434999940917,700.7028000080027,True,False
15,2,1087.3557665999979,cross,"(480.0, -270.0)",0,1129.8964000307024,717.5557000446133,True,False
15,2,1087.3741637999774,cross,"(480.0, -270.0)",0,1148.29360001022,735.9529000241309,True,False
15,2,1087.387057899963,cross,"(480.0, -270.0)",0,1161.187699995935,748.8470000098459,True,False
15,2,1087.4126023999997,cross,"(480.0, -270.0)",0,1186.7322000325657,774.3915000464767,True,False
15,2,1087.4257466999697,cross,"(480.0, -270.0)",0,1199.8765000025742,787.5358000164852,True,False
15,2,1087.4409129999694,cross,"(480.0, -270.0)",0,1215.0428000022657,802.7021000161767,True,False
15,2,1087.4545284999767,cross,"(480.0, -270.0)",0,1228.6583000095561,816.3176000234671,True,False
15,2,1087.4727615999873,cross,"(480.0, -270.0)",0,1246.891400020104,834.5507000340149,True,False
15,2,1087.4878363999887,cross,"(480.0, -270.0)",0,1261.9662000215612,849.6255000354722,True,False
15,2,1087.5064469999634,cross,"(480.0, -270.0)",0,1280.5767999961972,868.2361000101082,True,False
15,2,1087.5213806999964,cross,"(480.0, -270.0)",0,1295.510500029195,883.1698000431061,True,False
15,2,1087.539413099992,cross,"(480.0, -270.0)",0,1313.5429000249133,901.2022000388242,True,False
15,2,1087.5539078000002,cross,"(480.0, -270.0)",0,1328.0376000329852,915.6969000468962,True,False
15,2,1087.571460999956,cross,"(480.0, -270.0)",0,1345.5907999887131,933.2501000026241,True,False
15,2,1087.5875163999735,cross,"(480.0, -270.0)",0,1361.646200006362,949.305500020273,True,False
15,2,1087.6058621999691,cross,"(480.0, -270.0)",0,1379.9920000019483,967.6513000158593,True,False
15,2,1087.6082666000002,t,"(480.0, 270.0)",265.9853000077419,1382.3964000330307,970.0557000469416,True,False
15,2,1087.6241227999562,t,"(480.0, 270.0)",0,1398.252599989064,985.911900002975,True,False
15,2,1087.6396650999668,t,"(480.0, 270.0)",0,1413.7948999996297,1001.4542000135407,True,False
15,2,1087.654419199971,t,"(480.0, 270.0)",0,1428.5490000038408,1016.2083000177518,True,False
15,2,1087.6724325999967,t,"(480.0, 270.0)",0,1446.5624000295065,1034.2217000434175,True,False
15,2,1087.6880468999734,t,"(480.0, 270.0)",0,1462.1767000062391,1049.83600002015,True,False
15,2,1087.705885299947,t,"(480.0, 270.0)",0,1480.015099979937,1067.674399993848,True,False
15,2,1087.71953209996,t,"(480.0, 270.0)",0,1493.6618999927305,1081.3212000066414,True,False
15,2,1087.7387342999573,t,"(480.0, 270.0)",0,1512.8640999901108,1100.5234000040218,True,False
15,2,1087.7543684999691,t,"(480.0, 270.0)",0,1528.4983000019565,1116.1576000158675,True,False
15,2,1087.7716939999955,t,"(480.0, 270.0)",0,1545.8238000283018,1133.4831000422128,True,False
15,2,1087.787229999958,t,"(480.0, 270.0)",0,1561.3597999908961,1149.0191000048071,True,False
15,2,1087.8047303999774,t,"(480.0, 270.0)",0,1578.86020001024,1166.519500024151,True,False
15,2,1087.8206119999522,t,"(480.0, 270.0)",0,1594.7417999850586,1182.4010999989696,True,False
15,2,1087.8389069999685,t,"(480.0, 270.0)",0,1613.0368000012822,1200.6961000151932,True,False
15,2,1087.8533845999627,t,"(480.0, 270.0)",0,1627.5143999955617,1215.1737000094727,True,False
15,2,1087.871973399946,t,"(480.0, 270.0)",0,1646.1031999788247,1233.7624999927357,True,False
15,2,1087.8866559999879,t,"(480.0, 270.0)",0,1660.785800020676,1248.445100034587,True,False
15,2,1087.9058504999848,t,"(480.0, 270.0)",0,1679.9803000176325,1267.6396000315435,True,False
15,2,1087.9202288999804,t,"(480.0, 270.0)",0,1694.3587000132538,1282.0180000271648,True,False
15,2,1087.9389633999672,t,"(480.0, 270.0)",0,1713.093200000003,1300.752500013914,True,False
15,2,1087.953155999945,t,"(480.0, 270.0)",0,1727.2857999778353,1314.9450999917462,True,False
15,2,1087.9724121999461,t,"(480.0, 270.0)",0,1746.5419999789447,1334.2012999928556,True,False
15,2,1087.9861653999542,t,"(480.0, 270.0)",0,1760.295199987013,1347.9545000009239,True,False
15,2,1088.005601699988,t,"(480.0, 270.0)",0,1779.7315000207163,1367.3908000346273,True,False
15,2,1088.0203075999743,t,"(480.0, 270.0)",0,1794.4374000071548,1382.0967000210658,True,False
15,2,1088.0381948999711,t,"(480.0, 270.0)",0,1812.3247000039555,1399.9840000178665,True,False
15,2,1088.0543623999692,t,"(480.0, 270.0)",0,1828.4922000020742,1416.1515000159852,True,False
15,2,1088.0720172000001,t,"(480.0, 270.0)",0,1846.1470000329427,1433.8063000468537,True,False
15,2,1088.0870803999715,t,"(480.0, 270.0)",0,1861.2102000042796,1448.8695000181906,True,False
15,2,1088.1058446999523,t,"(480.0, 270.0)",0,1879.97449998511,1467.633799999021,True,False
15,2,1088.1200718999607,t,"(480.0, 270.0)",0,1894.2016999935731,1481.861000007484,True,False
15,2,1088.1379428999498,t,"(480.0, 270.0)",0,1912.072699982673,1499.731999996584,True,False
15,2,1088.1532153000007,t,"(480.0, 270.0)",0,1927.3451000335626,1515.0044000474736,True,False
15,2,1088.1722092999844,t,"(480.0, 270.0)",0,1946.3391000172123,1533.9984000311233,True,False
15,2,1088.186835200002,t,"(480.0, 270.0)",0,1960.9650000347756,1548.6243000486866,True,False
15,2,1088.205514399975,t,"(480.0, 270.0)",0,1979.6442000078969,1567.3035000218078,True,False
15,2,1088.2085622999584,cross,"(480.0, -270.0)",266.3104999810457,1982.6920999912545,1570.3514000051655,True,False
15,2,1088.2232696999563,cross,"(480.0, -270.0)",0,1997.3994999891147,1585.0588000030257,True,False
15,2,1088.2387094000005,cross,"(480.0, -270.0)",0,2012.8392000333406,1600.4985000472516,True,False
15,2,1088.2529047999997,cross,"(480.0, -270.0)",0,2027.0346000324935,1614.6939000464045,True,False
15,2,1088.2721531999996,cross,"(480.0, -270.0)",0,2046.2830000324175,1633.9423000463285,True,False
15,2,1088.2871451999526,cross,"(480.0, -270.0)",0,2061.2749999854714,1648.9342999993823,True,False
15,2,1088.3049367999774,cross,"(480.0, -270.0)",0,2079.0666000102647,1666.7259000241756,True,False
15,2,1088.3204401999828,cross,"(480.0, -270.0)",0,2094.570000015665,1682.2293000295758,True,False
15,2,1088.3380431999685,cross,"(480.0, -270.0)",0,2112.1730000013486,1699.8323000152595,True,False
15,2,1088.3535611999687,cross,"(480.0, -270.0)",0,2127.691000001505,1715.350300015416,True,False
15,2,1088.3723077999894,cross,"(480.0, -270.0)",0,2146.437600022182,1734.0969000360928,True,False
15,2,1088.386581400002,cross,"(480.0, -270.0)",0,2160.7112000347115,1748.3705000486225,True,False
15,2,1088.4046455999487,cross,"(480.0, -270.0)",0,2178.7753999815322,1766.4346999954432,True,False
15,2,1088.419748299988,cross,"(480.0, -270.0)",0,2193.878100020811,1781.537400034722,True,False
15,2,1088.4377206999925,cross,"(480.0, -270.0)",0,2211.850500025321,1799.5098000392318,True,False
15,2,1088.9526994999615,cross,"(480.0, -270.0)",727.7377999853343,2726.8292999942787,2314.4886000081897,False,True
15,3,1089.4529898999608,cross,"(480.0, -270.0)",495.26409996906295,3227.1196999936365,500.29039999935776,True,False
15,3,1089.4744202999864,cross,"(480.0, -270.0)",0,3248.5501000192016,521.7208000249229,True,False
15,3,1089.4861983999726,cross,"(480.0, -270.0)",0,3260.3282000054605,533.4989000111818,True,False
15,3,1089.503733599966,cross,"(480.0, -270.0)",0,3277.8633999987505,551.0341000044718,True,False
15,3,1089.5191669999622,cross,"(480.0, -270.0)",0,3293.296799995005,566.4675000007264,True,False
15,3,1089.5380107999663,cross,"(480.0, -270.0)",0,3312.140599999111,585.3113000048324,True,False
15,3,1089.5530845999601,cross,"(480.0, -270.0)",0,3327.214399992954,600.3850999986753,True,False
15,3,1089.5709964999696,cross,"(480.0, -270.0)",0,3345.1263000024483,618.2970000081696,True,False
15,3,1089.5864862999879,cross,"(480.0, -270.0)",0,3360.6161000207067,633.786800026428,True,False
15,3,1089.6046138999518,cross,"(480.0, -270.0)",0,3378.743699984625,651.9143999903463,True,False
15,3,1089.6199707999476,cross,"(480.0, -270.0)",0,3394.1005999804474,667.2712999861687,True,False
15,3,1089.6389936999767,cross,"(480.0, -270.0)",0,3413.123500009533,686.2942000152543,True,False
15,3,1089.6531260999618,cross,"(480.0, -270.0)",0,3427.255899994634,700.4266000003554,True,False
15,3,1089.6712098999997,cross,"(480.0, -270.0)",0,3445.3397000324912,718.5104000382125,True,False
15,3,1089.6857258999953,cross,"(480.0, -270.0)",0,3459.855700028129,733.0264000338502,True,False
15,3,1089.703629399999,cross,"(480.0, -270.0)",0,3477.759200031869,750.9299000375904,True,False
15,3,1089.719702399976,cross,"(480.0, -270.0)",0,3493.83220000891,767.0029000146315,True,False
15,3,1089.737776199996,cross,"(480.0, -270.0)",0,3511.90600002883,785.0767000345513,True,False
15,3,1089.7535422999645,cross,"(480.0, -270.0)",0,3527.6720999972895,800.8428000030108,True,False
15,3,1089.7713163999724,cross,"(480.0, -270.0)",0,3545.4462000052445,818.6169000109658,True,False
15,3,1089.7859768999624,cross,"(480.0, -270.0)",0,3560.106699995231,833.2774000009522,True,False
15,3,1089.8040460999473,cross,"(480.0, -270.0)",0,3578.175899980124,851.3465999858454,True,False
15,3,1089.8197568999603,cross,"(480.0, -270.0)",0,3593.8866999931633,867.0573999988846,True,False
15,3,1089.837344200001,cross,"(480.0, -270.0)",0,3611.4740000339225,884.6447000396438,True,False
15,3,1089.8531230999506,cross,"(480.0, -270.0)",0,3627.252899983432,900.4235999891534,True,False
15,3,1089.8713818999822,cross,"(480.0, -270.0)",0,3645.5117000150494,918.6824000207707,True,False
15,3,1089.8856263999478,cross,"(480.0, -270.0)",0,3659.7561999806203,932.9268999863416,True,False
15,3,1089.9036645999877,cross,"(480.0, -270.0)",0,3677.7944000205025,950.9651000262238,True,False
15,3,1089.9187179,cross,"(480.0, -270.0)",0,3692.847700032871,966.0184000385925,True,False
15,3,1089.9372953999555,cross,"(480.0, -270.0)",0,3711.425199988298,984.5958999940194,True,False
15,3,1089.9525868999772,cross,"(480.0, -270.0)",0,3726.7167000100017,999.887400015723,True,False
15,3,1089.9709025999764,cross,"(480.0, -270.0)",0,3745.0324000092223,1018.2031000149436,True,False
15,3,1089.9858029999887,cross,"(480.0, -270.0)",0,3759.932800021488,1033.1035000272095,True,False
15,3,1090.0043702999828,cross,"(480.0, -270.0)",0,3778.5001000156626,1051.670800021384,True,False
15,3,1090.0194704000023,cross,"(480.0, -270.0)",0,3793.6002000351436,1066.770900040865,True,False
15,3,1090.0379277999746,cross,"(480.0, -270.0)",0,3812.0576000073925,1085.2283000131138,True,False
15,3,1090.0529089999618,cross,"(480.0, -270.0)",0,3827.038799994625,1100.2095000003465,True,False
15,3,1090.0711021999596,cross,"(480.0, -270.0)",0,3845.231999992393,1118.4026999981143,True,False
15,3,1090.0862260999857,cross,"(480.0, -270.0)",0,3860.355900018476,1133.5266000241973,True,False
15,3,1090.104573299992,cross,"(480.0, -270.0)",0,3878.7031000247225,1151.8738000304438,True,False
15,3,1090.1186892999685,cross,"(480.0, -270.0)",0,3892.819100001361,1165.9898000070825,True,False
15,3,1090.1363854999654,cross,"(480.0, -270.0)",0,3910.515299998224,1183.686000003945,True,False
15,3,1090.1519690999994,cross,"(480.0, -270.0)",0,3926.0989000322297,1199.269600037951,True,False
15,3,1090.1708345999941,cross,"(480.0, -270.0)",0,3944.9644000269473,1218.1351000326686,True,False
15,3,1090.185582999955,cross,"(480.0, -270.0)",0,3959.7127999877557,1232.883499993477,True,False
15,3,1090.2042710999958,cross,"(480.0, -270.0)",0,3978.400900028646,1251.5716000343673,True,False
15,3,1090.2189913999755,cross,"(480.0, -270.0)",0,3993.121200008318,1266.2919000140391,True,False
15,3,1090.2422583999578,cross,"(480.0, -270.0)",0,4016.3881999906152,1289.5588999963365,True,False
15,3,1090.255410999991,cross,"(480.0, -270.0)",0,4029.540800023824,1302.7115000295453,True,False
15,3,1090.2720351999742,cross,"(480.0, -270.0)",0,4046.165000007022,1319.3357000127435,True,False
15,3,1090.2859975999454,cross,"(480.0, -270.0)",0,4060.127399978228,1333.2980999839492,True,False
15,3,1090.3044302999624,cross,"(480.0, -270.0)",0,4078.5600999952294,1351.7308000009507,True,False
15,3,1090.3195201999624,cross,"(480.0, -270.0)",0,4093.6499999952503,1366.8207000009716,True,False
15,3,1090.337463599979,cross,"(480.0, -270.0)",0,4111.59340001177,1384.7641000174917,True,False
15,3,1090.352230599965,cross,"(480.0, -270.0)",0,4126.360399997793,1399.5311000035144,True,False
15,3,1090.3702652999782,cross,"(480.0, -270.0)",0,4144.395100011025,1417.565800016746,True,False
15,3,1090.3851705999696,cross,"(480.0, -270.0)",0,4159.300400002394,1432.4711000081152,True,False
15,3,1090.4034682999481,cross,"(480.0, -270.0)",0,4177.598099980969,1450.7687999866903,True,False
15,3,1090.418863400002,cross,"(480.0, -270.0)",0,4192.993200034834,1466.1639000405557,True,False
15,3,1090.4373043999658,cross,"(480.0, -270.0)",0,4211.434199998621,1484.6049000043422,True,False
15,3,1090.4525308999582,cross,"(480.0, -270.0)",0,4226.660699991044,1499.831399996765,True,False
15,3,1090.4713286999613,cross,"(480.0, -270.0)",0,4245.458499994129,1518.6291999998502,True,False
15,3,1090.4857189999893,cross,"(480.0, -270.0)",0,4259.848800022155,1533.0195000278763,True,False
15,3,1090.5036092999508,cross,"(480.0, -270.0)",0,4277.739099983592,1550.909799989313,True,False
15,3,1090.5192463999847,cross,"(480.0, -270.0)",0,4293.376200017519,1566.5469000232406,True,False
15,3,1090.537690499972,cross,"(480.0, -270.0)",0,4311.820300004911,1584.991000010632,True,False
15,3,1090.5522493000026,cross,"(480.0, -270.0)",0,4326.37910003541,1599.5498000411317,True,False
15,3,1090.5704286999535,cross,"(480.0, -270.0)",0,4344.558499986306,1617.7291999920271,True,False
15,3,1090.5859571999754,cross,"(480.0, -270.0)",0,4360.087000008207,1633.2577000139281,True,False
15,3,1090.604244199989,cross,"(480.0, -270.0)",0,4378.374000021722,1651.5447000274435,True,False
15,3,1090.6186941999476,cross,"(480.0, -270.0)",0,4392.823999980465,1665.9946999861859,True,False
15,3,1090.6363622999634,cross,"(480.0, -270.0)",0,4410.4920999961905,1683.6628000019118,True,False
15,3,1090.6516952999518,cross,"(480.0, -270.0)",0,4425.82509998465,1698.9957999903709,True,False
15,3,1090.669833299995,cross,"(480.0, -270.0)",0,4443.963100027759,1717.13380003348,True,False
15,3,1090.6853169999667,cross,"(480.0, -270.0)",0,4459.446799999569,1732.61750000529,True,False
15,3,1090.7037711999728,cross,"(480.0, -270.0)",0,4477.901000005659,1751.07170001138,True,False
15,3,1090.7187985999626,cross,"(480.0, -270.0)",0,4492.928399995435,1766.0991000011563,True,False
15,3,1090.7367410999723,cross,"(480.0, -270.0)",0,4510.870900005102,1784.0416000108235,True,False
15,3,1091.2515439999988,cross,"(480.0, -270.0)",481.3101000036113,5025.6738000316545,2298.844500037376,False,True
15,4,1093.5352799999528,cross,"(480.0, -270.0)",350.62979999929667,7309.409799985588,2283.735999953933,False,True
