trial_num,selection_num,timestamp,shape,position,fixation_duration_ms,rt_from_trial_start_ms,rt_from_previous_selection_ms,queued_selection,was_executed
13,1,146.17651829996612,circle,"(-480.0, -270.0)",263.1120000150986,263.1349999574013,263.1349999574013,False,True
13,2,147.0268698,circle,"(-480.0, -270.0)",266.9556000037119,1113.486499991268,850.3515000338666,True,False
13,2,147.04608619998908,circle,"(-480.0, -270.0)",0,1132.7028999803588,869.5679000229575,True,False
13,2,147.06042349996278,circle,"(-480.0, -270.0)",0,1147.0401999540627,883.9051999966614,True,False
13,2,147.07594889996108,circle,"(-480.0, -270.0)",0,1162.5655999523588,899.4305999949574,True,False
13,2,147.09481839998625,circle,"(-480.0, -270.0)",0,1181.4350999775343,918.300100020133,True,False
13,2,147.1101648999611,circle,"(-480.0, -270.0)",0,1196.7815999523737,933.6465999949723,True,False
13,2,147.1282578999526,circle,"(-480.0, -270.0)",0,1214.8745999438688,951.7395999864675,True,False
13,2,147.1434644999681,circle,"(-480.0, -270.0)",0,1230.0811999593861,966.9462000019848,True,False
13,2,147.16066940000746,circle,"(-480.0, -270.0)",0,1247.286099998746,984.1511000413448,True,False
13,2,147.17584509996232,circle,"(-480.0, -270.0)",0,1262.4617999535985,999.3267999961972,True,False
13,2,147.1939934999682,circle,"(-480.0, -270.0)",0,1280.610199959483,1017.4752000020817,True,False
13,2,147.20935909997206,circle,"(-480.0, -270.0)",0,1295.975799963344,1032.8408000059426,True,False
13,2,147.22707540000556,circle,"(-480.0, -270.0)",0,1313.6920999968424,1050.5571000394411,True,False
13,2,147.24274539999897,circle,"(-480.0, -270.0)",0,1329.3620999902487,1066.2271000328474,True,False
13,2,147.26049769995734,circle,"(-480.0, -270.0)",0,1347.114399948623,1083.9793999912217,True,False
13,2,147.27581099997042,circle,"(-480.0, -270.0)",0,1362.4276999616995,1099.2927000042982,True,False
13,2,147.29366480000317,circle,"(-480.0, -270.0)",0,1380.281499994453,1117.1465000370517,True,False
13,2,147.30939309997484,circle,"(-480.0, -270.0)",0,1396.009799966123,1132.8748000087216,True,False
13,2,147.32718179997755,circle,"(-480.0, -270.0)",0,1413.7984999688342,1150.663500011433,True,False
13,2,147.34341119998135,circle,"(-480.0, -270.0)",0,1430.0278999726288,1166.8929000152275,True,False
13,2,147.36034019995714,circle,"(-480.0, -270.0)",0,1446.9568999484181,1183.8218999910168,True,False
13,2,147.37676549999742,circle,"(-480.0, -270.0)",0,1463.3821999887004,1200.2472000312991,True,False
13,2,147.39377869997406,circle,"(-480.0, -270.0)",0,1480.3953999653459,1217.2604000079446,True,False
13,2,147.40906330000143,circle,"(-480.0, -270.0)",0,1495.679999992717,1232.5450000353158,True,False
13,2,147.42714739998337,circle,"(-480.0, -270.0)",0,1513.764099974651,1250.6291000172496,True,False
13,2,147.44278589996975,circle,"(-480.0, -270.0)",0,1529.4025999610312,1266.26760000363,True,False
13,2,147.46037489996525,circle,"(-480.0, -270.0)",0,1546.9915999565274,1283.856599999126,True,False
13,2,147.47639759996673,circle,"(-480.0, -270.0)",0,1563.014299958013,1299.8793000006117,True,False
13,2,147.49349779996555,circle,"(-480.0, -270.0)",0,1580.114499956835,1316.9794999994338,True,False
13,2,147.5097686999943,circle,"(-480.0, -270.0)",0,1596.3853999855928,1333.2504000281915,True,False
13,2,147.5272280999925,circle,"(-480.0, -270.0)",0,1613.8447999837808,1350.7098000263795,True,False
13,2,147.5435346000013,circle,"(-480.0, -270.0)",0,1630.1512999925762,1367.016300035175,True,False
13,2,147.56021839997265,circle,"(-480.0, -270.0)",0,1646.835099963937,1383.7001000065356,True,False
13,2,147.57675389997894,circle,"(-480.0, -270.0)",0,1663.3705999702215,1400.2356000128202,True,False
13,2,147.59389839996584,circle,"(-480.0, -270.0)",0,1680.5150999571197,1417.3800999997184,True,False
13,2,147.61003949999576,circle,"(-480.0, -270.0)",0,1696.6561999870464,1433.5212000296451,True,False
13,2,147.62679489998845,circle,"(-480.0, -270.0)",0,1713.411599979736,1450.2766000223346,True,False
13,2,147.64201059995685,circle,"(-480.0, -270.0)",0,1728.6272999481298,1465.4922999907285,True,False
13,2,147.66019199998118,circle,"(-480.0, -270.0)",0,1746.808699972462,1483.6737000150606,True,False
13,2,147.67600599996513,circle,"(-480.0, -270.0)",0,1762.6226999564096,1499.4876999990083,True,False
13,2,147.6937065999955,circle,"(-480.0, -270.0)",0,1780.323299986776,1517.1883000293747,True,False
13,2,147.70948959997622,circle,"(-480.0, -270.0)",0,1796.106299967505,1532.9713000101037,True,False
13,2,147.72675229999004,circle,"(-480.0, -270.0)",0,1813.3689999813214,1550.23400002392,True,False
13,2,147.74361289996887,circle,"(-480.0, -270.0)",0,1830.2295999601483,1567.094600002747,True,False
13,2,147.7603678999585,circle,"(-480.0, -270.0)",0,1846.984599949792,1583.8495999923907,True,False
13,2,147.77658919995883,circle,"(-480.0, -270.0)",0,1863.2058999501169,1600.0708999927156,True,False
13,2,147.79360430000816,circle,"(-480.0, -270.0)",0,1880.2209999994375,1617.0860000420362,True,False
13,2,147.80995369999437,circle,"(-480.0, -270.0)",0,1896.5703999856487,1633.4354000282474,True,False
13,2,147.8268861999968,circle,"(-480.0, -270.0)",0,1913.5028999880888,1650.3679000306875,True,False
13,2,147.84212579997256,circle,"(-480.0, -270.0)",0,1928.742499963846,1665.6075000064448,True,False
13,2,147.86004790000152,circle,"(-480.0, -270.0)",0,1946.6645999928005,1683.5296000353992,True,False
13,2,147.87616649997653,circle,"(-480.0, -270.0)",0,1962.7831999678165,1699.6482000104152,True,False
13,2,147.89366649999283,circle,"(-480.0, -270.0)",0,1980.2831999841146,1717.1482000267133,True,False
13,2,147.90915089996997,circle,"(-480.0, -270.0)",0,1995.7675999612547,1732.6326000038534,True,False
13,2,147.9269943999825,circle,"(-480.0, -270.0)",0,2013.6110999737866,1750.4761000163853,True,False
13,2,147.94342359999428,circle,"(-480.0, -270.0)",0,2030.0402999855578,1766.9053000281565,True,False
13,2,147.96023409999907,circle,"(-480.0, -270.0)",0,2046.8507999903522,1783.715800032951,True,False
13,2,148.6266182999825,cross,"(480.0, -270.0)",251.48979999357834,2713.2349999737926,2450.1000000163913,False,True
13,3,148.89426699996693,cross,"(480.0, -270.0)",264.5963999675587,2980.8836999582127,267.6486999844201,True,False
13,3,148.91123059997335,cross,"(480.0, -270.0)",0,2997.847299964633,284.61229999084026,True,False
13,3,148.92655759997433,cross,"(480.0, -270.0)",0,3013.1742999656126,299.93929999182,True,False
13,3,148.94293059996562,cross,"(480.0, -270.0)",0,3029.547299956903,316.3122999831103,True,False
13,3,148.9600404999801,cross,"(480.0, -270.0)",0,3046.657199971378,333.42219999758527,True,False
13,3,148.97624829999404,cross,"(480.0, -270.0)",0,3062.8649999853224,349.6300000115298,True,False
13,3,148.9933297999669,cross,"(480.0, -270.0)",0,3079.9464999581687,366.71149998437613,True,False
13,3,149.00952349998988,cross,"(480.0, -270.0)",0,3096.140199981164,382.9052000073716,True,False
13,3,149.02755130000878,cross,"(480.0, -270.0)",0,3114.1680000000633,400.93300002627075,True,False
13,3,149.04277459997684,cross,"(480.0, -270.0)",0,3129.3912999681197,416.1562999943271,True,False
13,3,149.05984969995916,cross,"(480.0, -270.0)",0,3146.466399950441,433.2313999766484,True,False
13,3,149.07603830000153,cross,"(480.0, -270.0)",0,3162.65499999281,449.4200000190176,True,False
13,3,149.09330169996247,cross,"(480.0, -270.0)",0,3179.918399953749,466.68339997995645,True,False
13,3,149.10848299995996,cross,"(480.0, -270.0)",0,3195.0996999512427,481.8646999774501,True,False
13,3,149.126749499992,cross,"(480.0, -270.0)",0,3213.366199983284,500.1312000094913,True,False
13,3,149.1421289999853,cross,"(480.0, -270.0)",0,3228.745699976571,515.5107000027783,True,False
13,3,149.15954520000378,cross,"(480.0, -270.0)",0,3246.161899995059,532.9269000212662,True,False
13,3,149.17546209995635,cross,"(480.0, -270.0)",0,3262.0787999476306,548.843799973838,True,False
13,3,149.19302800000878,cross,"(480.0, -270.0)",0,3279.6447000000626,566.40970002627,True,False
13,3,149.209143999964,cross,"(480.0, -270.0)",0,3295.760699955281,582.5256999814883,True,False
13,3,149.22633439995116,cross,"(480.0, -270.0)",0,3312.9510999424383,599.7160999686457,True,False
13,3,149.24285069998587,cross,"(480.0, -270.0)",0,3329.4673999771476,616.232400003355,True,False
13,3,149.2602012999705,cross,"(480.0, -270.0)",0,3346.817999961786,633.5829999879934,True,False
13,3,149.27620089997072,cross,"(480.0, -270.0)",0,3362.817599962,649.5825999882072,True,False
13,3,149.2932504999917,cross,"(480.0, -270.0)",0,3379.867199982982,666.6322000091895,True,False
13,3,149.30932780000148,cross,"(480.0, -270.0)",0,3395.9444999927655,682.7095000189729,True,False
13,3,149.32656869996572,cross,"(480.0, -270.0)",0,3413.185399957001,699.9503999832086,True,False
13,3,149.34258229995612,cross,"(480.0, -270.0)",0,3429.1989999474026,715.96399997361,True,False
13,3,149.36011000000872,cross,"(480.0, -270.0)",0,3446.7266999999993,733.4917000262067,True,False
13,3,149.37509739998495,cross,"(480.0, -270.0)",0,3461.714099976234,748.4791000024416,True,False
13,3,149.39294439996593,cross,"(480.0, -270.0)",0,3479.561099957209,766.3260999834165,True,False
13,3,149.408544899954,cross,"(480.0, -270.0)",0,3495.161599945277,781.9265999714844,True,False
13,3,149.4260637999978,cross,"(480.0, -270.0)",0,3512.6804999890737,799.4455000152811,True,False
13,3,149.44173309998587,cross,"(480.0, -270.0)",0,3528.34979997715,815.1148000033572,True,False
13,3,149.4594787999522,cross,"(480.0, -270.0)",0,3546.095499943476,832.8604999696836,True,False
13,3,149.4760069999611,cross,"(480.0, -270.0)",0,3562.6236999523826,849.38869997859,True,False
13,3,149.49315569997998,cross,"(480.0, -270.0)",0,3579.7723999712616,866.537399997469,True,False
13,3,149.50931579997996,cross,"(480.0, -270.0)",0,3595.9324999712408,882.6974999974482,True,False
13,3,149.52951149997534,cross,"(480.0, -270.0)",0,3616.1281999666244,902.8931999928318,True,False
13,3,149.54209929995704,cross,"(480.0, -270.0)",0,3628.7159999483265,915.4809999745339,True,False
13,3,149.55947659997037,cross,"(480.0, -270.0)",0,3646.093299961649,932.8582999878563,True,False
13,3,149.57591229997342,cross,"(480.0, -270.0)",0,3662.5289999647066,949.293999990914,True,False
13,3,149.59263339999598,cross,"(480.0, -270.0)",0,3679.2500999872573,966.0151000134647,True,False
13,3,149.608058599988,cross,"(480.0, -270.0)",0,3694.6752999792807,981.4403000054881,True,False
13,3,149.6262005000026,cross,"(480.0, -270.0)",0,3712.8171999938786,999.582200020086,True,False
13,3,149.64185399998678,cross,"(480.0, -270.0)",0,3728.470699978061,1015.2357000042684,True,False
13,3,149.65982669999357,cross,"(480.0, -270.0)",0,3746.443399984855,1033.2084000110626,True,False
13,3,149.67579720000504,cross,"(480.0, -270.0)",0,3762.413899996318,1049.1789000225253,True,False
13,3,149.69270539999707,cross,"(480.0, -270.0)",0,3779.322099988349,1066.0871000145562,True,False
13,3,149.70850859995699,cross,"(480.0, -270.0)",0,3795.1252999482676,1081.890299974475,True,False
13,3,149.72637429996394,cross,"(480.0, -270.0)",0,3812.9909999552183,1099.7559999814257,True,False
13,3,149.74262929998804,cross,"(480.0, -270.0)",0,3829.245999979321,1116.0110000055283,True,False
13,3,149.7597858000081,cross,"(480.0, -270.0)",0,3846.4024999993853,1133.1675000255927,True,False
13,3,149.77573329996085,cross,"(480.0, -270.0)",0,3862.34999995213,1149.1149999783374,True,False
13,3,149.79305370000657,cross,"(480.0, -270.0)",0,3879.670399997849,1166.4354000240564,True,False
13,3,149.80928509996738,cross,"(480.0, -270.0)",0,3895.901799958665,1182.6667999848723,True,False
13,3,149.82694279996213,cross,"(480.0, -270.0)",0,3913.559499953408,1200.3244999796152,True,False
13,3,149.8421510999906,cross,"(480.0, -270.0)",0,3928.7677999818698,1215.5328000080772,True,False
13,3,149.8595123999985,cross,"(480.0, -270.0)",0,3946.1290999897756,1232.894100015983,True,False
13,3,149.8752638999722,cross,"(480.0, -270.0)",0,3961.8805999634787,1248.6455999896862,True,False
13,3,149.8925793999806,cross,"(480.0, -270.0)",0,3979.1960999718867,1265.9610999980941,True,False
13,3,149.9085541999666,cross,"(480.0, -270.0)",0,3995.170899957884,1281.9358999840915,True,False
13,3,149.92601940000895,cross,"(480.0, -270.0)",0,4012.636100000236,1299.4011000264436,True,False
13,3,149.9420121999574,cross,"(480.0, -270.0)",0,4028.6288999486715,1315.3938999748789,True,False
13,3,149.9594593999791,cross,"(480.0, -270.0)",0,4046.076099970378,1332.8410999965854,True,False
13,3,149.9748393999762,cross,"(480.0, -270.0)",0,4061.4560999674723,1348.2210999936797,True,False
13,3,149.99301709997235,cross,"(480.0, -270.0)",0,4079.6337999636307,1366.3987999898382,True,False
13,3,150.00883359997533,cross,"(480.0, -270.0)",0,4095.4502999666147,1382.215299992822,True,False
13,3,150.02626829996007,cross,"(480.0, -270.0)",0,4112.884999951348,1399.6499999775551,True,False
13,3,150.04241080000065,cross,"(480.0, -270.0)",0,4129.027499991935,1415.7925000181422,True,False
13,3,150.0596566000022,cross,"(480.0, -270.0)",0,4146.2732999934815,1433.038300019689,True,False
13,3,150.07568539999193,cross,"(480.0, -270.0)",0,4162.302099983208,1449.0671000094153,True,False
13,3,150.0930335999583,cross,"(480.0, -270.0)",0,4179.6502999495715,1466.415299975779,True,False
13,3,150.10823469999013,cross,"(480.0, -270.0)",0,4194.851399981417,1481.6164000076242,True,False
13,3,150.1262607999961,cross,"(480.0, -270.0)",0,4212.877499987371,1499.6425000135787,True,False
13,3,150.14158209995367,cross,"(480.0, -270.0)",0,4228.198799944948,1514.9637999711558,True,False
13,3,150.15948029997526,cross,"(480.0, -270.0)",0,4246.096999966539,1532.8619999927469,True,False
13,3,150.17484089999925,cross,"(480.0, -270.0)",0,4261.4575999905355,1548.222600016743,True,False
13,3,150.19306530000176,cross,"(480.0, -270.0)",0,4279.681999993045,1566.4470000192523,True,False
13,3,150.20833529997617,cross,"(480.0, -270.0)",0,4294.951999967452,1581.7169999936596,True,False
13,3,150.22629409999354,cross,"(480.0, -270.0)",0,4312.91079998482,1599.6758000110276,True,False
13,3,150.24232699995628,cross,"(480.0, -270.0)",0,4328.943699947558,1615.7086999737658,True,False
13,3,150.25970729999244,cross,"(480.0, -270.0)",0,4346.323999983724,1633.0890000099316,True,False
13,3,150.2756042999681,cross,"(480.0, -270.0)",0,4362.220999959391,1648.985999985598,True,False
13,3,150.29292469995562,cross,"(480.0, -270.0)",0,4379.541399946902,1666.3063999731094,True,False
13,3,150.3089178999653,cross,"(480.0, -270.0)",0,4395.534599956591,1682.299599982798,True,False
13,3,150.32621269999072,cross,"(480.0, -270.0)",0,4412.829399982002,1699.594400008209,True,False
13,3,150.3410520000034,cross,"(480.0, -270.0)",0,4427.668699994683,1714.4337000208907,True,False
13,3,150.3594388999627,cross,"(480.0, -270.0)",0,4446.055599953979,1732.8205999801867,True,False
13,3,150.37501469999552,cross,"(480.0, -270.0)",0,4461.6313999868,1748.3964000130072,True,False
13,3,150.3924071000074,cross,"(480.0, -270.0)",0,4479.023799998686,1765.7888000248931,True,False
13,3,150.4082841000054,cross,"(480.0, -270.0)",0,4494.900799996685,1781.6658000228927,True,False
13,3,150.42591749998974,cross,"(480.0, -270.0)",0,4512.534199981019,1799.2992000072263,True,False
13,3,151.9584557999624,star,"(-480.0, 270.0)",250.20529999164864,6045.072499953676,3331.8374999798834,False,True
14,1,165.2875470999861,circle,"(-480.0, -270.0)",266.46910002455115,4280.07759997854,4280.07759997854,False,True
14,2,165.55446269997628,circle,"(-480.0, -270.0)",264.33779997751117,4546.9931999687105,266.91559999017045,True,False
14,2,165.57800149999093,circle,"(-480.0, -270.0)",0,4570.531999983359,290.45440000481904,True,False
14,2,165.58948919997783,circle,"(-480.0, -270.0)",0,4582.01969997026,301.94209999172017,True,False
14,2,165.603474500007,circle,"(-480.0, -270.0)",0,4596.004999999423,315.9274000208825,True,False
14,2,165.62125139997806,circle,"(-480.0, -270.0)",0,4613.7818999704905,333.7042999919504,True,False
14,2,165.6363492999808,circle,"(-480.0, -270.0)",0,4628.87979997322,348.80219999467954,True,False
14,2,165.6545388000086,circle,"(-480.0, -270.0)",0,4647.0693000010215,366.9917000224814,True,False
14,2,165.67101559997536,circle,"(-480.0, -270.0)",0,4663.546099967789,383.4684999892488,True,False
14,2,165.6878862999729,circle,"(-480.0, -270.0)",0,4680.416799965315,400.3391999867745,True,False
14,2,165.70421569998143,circle,"(-480.0, -270.0)",0,4696.746199973859,416.6685999953188,True,False
14,2,165.721259599959,circle,"(-480.0, -270.0)",0,4713.790099951439,433.7124999728985,True,False
14,2,165.7369316999684,circle,"(-480.0, -270.0)",0,4729.462199960835,449.3845999822952,True,False
14,2,165.7547152999905,circle,"(-480.0, -270.0)",0,4747.24579998292,467.1682000043802,True,False
14,2,165.77001929999096,circle,"(-480.0, -270.0)",0,4762.54979998339,482.4722000048496,True,False
14,2,165.78765119996388,circle,"(-480.0, -270.0)",0,4780.181699956302,500.1040999777615,True,False
14,2,165.80355519999284,circle,"(-480.0, -270.0)",0,4796.0856999852695,516.0081000067294,True,False
14,2,165.8207507999614,circle,"(-480.0, -270.0)",0,4813.281299953815,533.2036999752745,True,False
14,2,165.83679329999723,circle,"(-480.0, -270.0)",0,4829.323799989652,549.2462000111118,True,False
14,2,165.85437660000753,circle,"(-480.0, -270.0)",0,4846.907099999953,566.829500021413,True,False
14,2,165.8705975000048,circle,"(-480.0, -270.0)",0,4863.127999997232,583.050400018692,True,False
14,2,165.8878749999567,circle,"(-480.0, -270.0)",0,4880.40549994912,600.3278999705799,True,False
14,2,165.9040968999616,circle,"(-480.0, -270.0)",0,4896.6273999540135,616.5497999754734,True,False
14,2,165.92110979999416,circle,"(-480.0, -270.0)",0,4913.640299986582,633.5627000080422,True,False
14,2,165.93718349997653,circle,"(-480.0, -270.0)",0,4929.713999968953,649.6363999904133,True,False
14,2,165.95455219998257,circle,"(-480.0, -270.0)",0,4947.082699974999,667.0050999964587,True,False
14,2,165.96954949997598,circle,"(-480.0, -270.0)",0,4962.0799999684095,682.0023999898694,True,False
14,2,165.98724629997741,circle,"(-480.0, -270.0)",0,4979.776799969841,699.6991999913007,True,False
14,2,166.00292769999942,circle,"(-480.0, -270.0)",0,4995.458199991845,715.3806000133045,True,False
14,2,166.02071479998995,circle,"(-480.0, -270.0)",0,5013.245299982373,733.1677000038326,True,False
14,2,166.0365015999996,circle,"(-480.0, -270.0)",0,5029.032099992037,748.9545000134967,True,False
14,2,166.0542168999673,circle,"(-480.0, -270.0)",0,5046.747399959713,766.6697999811731,True,False
14,2,166.07059199997457,circle,"(-480.0, -270.0)",0,5063.122499966994,783.0448999884538,True,False
14,2,166.0883257999667,circle,"(-480.0, -270.0)",0,5080.856299959123,800.778699980583,True,False
14,2,166.10412069997983,circle,"(-480.0, -270.0)",0,5096.651199972257,816.5735999937169,True,False
14,2,166.12123250000877,circle,"(-480.0, -270.0)",0,5113.7630000011995,833.6854000226595,True,False
14,2,166.13733060000231,circle,"(-480.0, -270.0)",0,5129.861099994741,849.7835000162013,True,False
14,2,166.15466499998,circle,"(-480.0, -270.0)",0,5147.19549997244,867.1178999939002,True,False
14,2,166.1695902000065,circle,"(-480.0, -270.0)",0,5162.120699998923,882.0431000203826,True,False
14,2,166.1879973000032,circle,"(-480.0, -270.0)",0,5180.527799995616,900.450200017076,True,False
14,2,166.20429189997958,circle,"(-480.0, -270.0)",0,5196.822399972007,916.7447999934666,True,False
14,2,166.22117079998134,circle,"(-480.0, -270.0)",0,5213.7012999737635,933.6236999952234,True,False
14,2,166.23653840000043,circle,"(-480.0, -270.0)",0,5229.068899992853,948.9913000143133,True,False
14,2,166.2542557999841,circle,"(-480.0, -270.0)",0,5246.78629997652,966.7086999979801,True,False
14,2,166.27020559995435,circle,"(-480.0, -270.0)",0,5262.736099946778,982.6584999682382,True,False
14,2,166.28754160000244,circle,"(-480.0, -270.0)",0,5280.072099994868,999.994500016328,True,False
14,2,166.30356819997542,circle,"(-480.0, -270.0)",0,5296.098699967843,1016.0210999893025,True,False
14,2,166.321026599966,circle,"(-480.0, -270.0)",0,5313.557099958416,1033.479499979876,True,False
14,2,166.3365335999988,circle,"(-480.0, -270.0)",0,5329.064099991228,1048.9865000126883,True,False
14,2,166.35447570000542,circle,"(-480.0, -270.0)",0,5347.00619999785,1066.9286000193097,True,False
14,2,166.356463300006,cross,"(480.0, -270.0)",250.6458000279963,5348.993799998425,1068.9162000198849,True,False
14,2,166.37298230000306,cross,"(480.0, -270.0)",0,5365.512799995486,1085.4352000169456,True,False
14,2,166.38792789995205,cross,"(480.0, -270.0)",0,5380.458399944473,1100.380799965933,True,False
14,2,166.40405379998265,cross,"(480.0, -270.0)",0,5396.584299975075,1116.5066999965347,True,False
14,2,166.4210938999895,cross,"(480.0, -270.0)",0,5413.624399981927,1133.546800003387,True,False
14,2,166.43628929997794,cross,"(480.0, -270.0)",0,5428.81979997037,1148.7421999918297,True,False
14,2,166.45463549997658,cross,"(480.0, -270.0)",0,5447.165999969002,1167.0883999904618,True,False
14,2,166.47021780000068,cross,"(480.0, -270.0)",0,5462.748299993109,1182.6707000145689,True,False
14,2,166.48723039997276,cross,"(480.0, -270.0)",0,5479.760899965186,1199.6832999866456,True,False
14,2,166.50303179997718,cross,"(480.0, -270.0)",0,5495.562299969606,1215.484699991066,True,False
14,2,166.52091739996104,cross,"(480.0, -270.0)",0,5513.447899953462,1233.370299974922,True,False
14,2,166.53667609998956,cross,"(480.0, -270.0)",0,5529.20659998199,1249.1290000034496,True,False
14,2,166.55442479997873,cross,"(480.0, -270.0)",0,5546.95529997116,1266.8776999926195,True,False
14,2,166.57017049996648,cross,"(480.0, -270.0)",0,5562.700999958906,1282.6233999803662,True,False
14,2,166.59363499999745,cross,"(480.0, -270.0)",0,5586.165499989875,1306.0879000113346,True,False
14,2,166.60445499996422,cross,"(480.0, -270.0)",0,5596.985499956645,1316.907899978105,True,False
14,2,166.62077399995178,cross,"(480.0, -270.0)",0,5613.304499944206,1333.2268999656662,True,False
14,2,166.6371777000022,cross,"(480.0, -270.0)",0,5629.708199994639,1349.6306000160985,True,False
14,2,166.65423849999206,cross,"(480.0, -270.0)",0,5646.768999984488,1366.6914000059478,True,False
14,2,166.6696346999961,cross,"(480.0, -270.0)",0,5662.165199988522,1382.0876000099815,True,False
14,2,166.68734179995954,cross,"(480.0, -270.0)",0,5679.872299951967,1399.7946999734268,True,False
14,2,166.70304629998282,cross,"(480.0, -270.0)",0,5695.5767999752425,1415.4991999967024,True,False
14,2,166.72077979997266,cross,"(480.0, -270.0)",0,5713.310299965087,1433.2326999865472,True,False
14,2,166.73667549999664,cross,"(480.0, -270.0)",0,5729.205999989063,1449.1284000105225,True,False
14,2,166.75399179995293,cross,"(480.0, -270.0)",0,5746.5222999453545,1466.4446999668144,True,False
14,2,166.77007979998598,cross,"(480.0, -270.0)",0,5762.610299978405,1482.5326999998651,True,False
14,2,166.7872430999996,cross,"(480.0, -270.0)",0,5779.7735999920405,1499.6960000135005,True,False
14,2,166.80317480000667,cross,"(480.0, -270.0)",0,5795.705299999099,1515.6277000205591,True,False
14,2,166.82092209998518,cross,"(480.0, -270.0)",0,5813.452599977609,1533.3749999990687,True,False
14,2,166.8370931999525,cross,"(480.0, -270.0)",0,5829.623699944932,1549.546099966392,True,False
14,2,166.8549199999543,cross,"(480.0, -270.0)",0,5847.450499946717,1567.372899968177,True,False
14,2,166.87048929999582,cross,"(480.0, -270.0)",0,5863.019799988251,1582.942200009711,True,False
14,2,166.88792919996195,cross,"(480.0, -270.0)",0,5880.459699954372,1600.3820999758318,True,False
14,2,166.90366309997626,cross,"(480.0, -270.0)",0,5896.193599968683,1616.1159999901429,True,False
14,2,166.92099369998323,cross,"(480.0, -270.0)",0,5913.5241999756545,1633.4465999971144,True,False
14,2,166.93647449999116,cross,"(480.0, -270.0)",0,5929.00499998359,1648.92740000505,True,False
14,2,166.95397380000213,cross,"(480.0, -270.0)",0,5946.504299994558,1666.426700016018,True,False
14,2,166.96955249999883,cross,"(480.0, -270.0)",0,5962.082999991253,1682.005400012713,True,False
14,2,166.9870211999514,cross,"(480.0, -270.0)",0,5979.5516999438405,1699.4740999653004,True,False
14,2,167.00317189999623,cross,"(480.0, -270.0)",0,5995.702399988659,1715.6248000101186,True,False
14,2,167.02032650000183,cross,"(480.0, -270.0)",0,6012.856999994256,1732.7794000157155,True,False
14,2,167.03647150000324,cross,"(480.0, -270.0)",0,6029.001999995671,1748.9244000171311,True,False
14,2,167.0564020999591,cross,"(480.0, -270.0)",0,6048.932599951513,1768.854999972973,True,False
14,2,167.0698490999639,cross,"(480.0, -270.0)",0,6062.37959995633,1782.3019999777898,True,False
14,2,167.08778780000284,cross,"(480.0, -270.0)",0,6080.31829999527,1800.2407000167295,True,False
14,2,170.28661989996908,star,"(-480.0, 270.0)",267.43820001138374,9279.150399961509,4999.072799982969,False,True
14,3,173.0182895999751,cross,"(480.0, -270.0)",266.58220001263544,12010.820099967532,2731.669700006023,False,True
14,4,176.38373289996525,circle,"(-480.0, -270.0)",250.196999986656,15376.26339995768,3365.4432999901474,False,True
15,1,180.84919839998474,cross,"(480.0, -270.0)",267.10719999391586,628.5338000161573,628.5338000161573,False,True
15,2,181.1164125999785,cross,"(480.0, -270.0)",263.39829998323694,895.7480000099167,267.2141999937594,True,False
15,2,181.13429379998706,cross,"(480.0, -270.0)",0,913.6292000184767,285.09540000231937,True,False
15,2,181.14943170000333,cross,"(480.0, -270.0)",0,928.7671000347473,300.23330001858994,True,False
15,2,181.16582120000385,cross,"(480.0, -270.0)",0,945.1566000352614,316.62280001910403,True,False
15,2,181.18298219999997,cross,"(480.0, -270.0)",0,962.3176000313833,333.783800015226,True,False
15,2,181.1990083999699,cross,"(480.0, -270.0)",0,978.343800001312,349.8099999851547,True,False
15,2,181.21611449995544,cross,"(480.0, -270.0)",0,995.449899986852,366.91609997069463,True,False
15,2,181.23225030000322,cross,"(480.0, -270.0)",0,1011.5857000346296,383.0519000184722,True,False
15,2,181.24962349998532,cross,"(480.0, -270.0)",0,1028.9589000167325,400.4251000005752,True,False
15,2,181.26463940000394,cross,"(480.0, -270.0)",0,1043.9748000353575,415.44100001920015,True,False
15,2,181.28282679995755,cross,"(480.0, -270.0)",0,1062.1621999889612,433.6283999728039,True,False
15,2,181.29774319997523,cross,"(480.0, -270.0)",0,1077.0786000066437,448.54479999048635,True,False
15,2,181.31621949997498,cross,"(480.0, -270.0)",0,1095.554900006391,467.0210999902338,True,False
15,2,181.33145679999143,cross,"(480.0, -270.0)",0,1110.7922000228427,482.2584000066854,True,False
15,2,181.3489644000074,cross,"(480.0, -270.0)",0,1128.2998000388034,499.76600002264604,True,False
15,2,181.36502699996345,cross,"(480.0, -270.0)",0,1144.3623999948613,515.828599978704,True,False
15,2,181.3828344999929,cross,"(480.0, -270.0)",0,1162.1699000243098,533.6361000081524,True,False
15,2,181.39824969996698,cross,"(480.0, -270.0)",0,1177.585099998396,549.0512999822386,True,False
15,2,181.41621920000762,cross,"(480.0, -270.0)",0,1195.5546000390314,567.020800022874,True,False
15,2,181.4322186000063,cross,"(480.0, -270.0)",0,1211.5540000377223,583.020200021565,True,False
15,2,181.45003639999777,cross,"(480.0, -270.0)",0,1229.3718000291847,600.8380000130273,True,False
15,2,181.46591879997868,cross,"(480.0, -270.0)",0,1245.2542000100948,616.7203999939375,True,False
15,2,181.482548400003,cross,"(480.0, -270.0)",0,1261.8838000344113,633.3500000182539,True,False
15,2,181.49800299998606,cross,"(480.0, -270.0)",0,1277.3384000174701,648.8046000013128,True,False
15,2,181.51628350000829,cross,"(480.0, -270.0)",0,1295.618900039699,667.0851000235416,True,False
15,2,181.5314235999831,cross,"(480.0, -270.0)",0,1310.7590000145137,682.2251999983564,True,False
15,2,181.5495832999586,cross,"(480.0, -270.0)",0,1328.9186999900267,700.3848999738693,True,False
15,2,181.56508769997163,cross,"(480.0, -270.0)",0,1344.4231000030413,715.889299986884,True,False
15,2,181.5826146999607,cross,"(480.0, -270.0)",0,1361.9500999921001,733.4162999759428,True,False
15,2,181.59827809996204,cross,"(480.0, -270.0)",0,1377.6134999934584,749.0796999773011,True,False
15,2,181.61560659995303,cross,"(480.0, -270.0)",0,1394.9419999844395,766.4081999682821,True,False
15,2,181.63144389999798,cross,"(480.0, -270.0)",0,1410.7793000293896,782.2455000132322,True,False
15,2,181.65001019998454,cross,"(480.0, -270.0)",0,1429.3456000159495,800.8117999997921,True,False
15,2,181.66548409999814,cross,"(480.0, -270.0)",0,1444.8195000295527,816.2857000133954,True,False
15,2,181.68253389996244,cross,"(480.0, -270.0)",0,1461.8692999938503,833.335499977693,True,False
15,2,181.69880809995811,cross,"(480.0, -270.0)",0,1478.1434999895282,849.6096999733709,True,False
15,2,181.71588889998384,cross,"(480.0, -270.0)",0,1495.224300015252,866.6904999990948,True,False
15,2,181.73130609997315,cross,"(480.0, -270.0)",0,1510.6415000045672,882.1076999884099,True,False
15,2,181.74920989997918,cross,"(480.0, -270.0)",0,1528.5453000105917,900.0114999944344,True,False
15,2,181.76449139998294,cross,"(480.0, -270.0)",0,1543.826800014358,915.2929999982007,True,False
15,2,181.78280190000078,cross,"(480.0, -270.0)",0,1562.137300032191,933.6035000160336,True,False
15,2,181.7978402999579,cross,"(480.0, -270.0)",0,1577.1756999893114,948.6418999731541,True,False
15,2,181.8162183999666,cross,"(480.0, -270.0)",0,1595.5537999980152,967.0199999818578,True,False
15,2,181.83146429999033,cross,"(480.0, -270.0)",0,1610.7997000217438,982.2659000055864,True,False
15,2,181.8498227999662,cross,"(480.0, -270.0)",0,1629.1581999976188,1000.6243999814615,True,False
15,2,181.86478099995293,cross,"(480.0, -270.0)",0,1644.1163999843411,1015.5825999681838,True,False
15,2,181.88252679997822,cross,"(480.0, -270.0)",0,1661.8622000096366,1033.3283999934793,True,False
15,2,181.8988014999777,cross,"(480.0, -270.0)",0,1678.1369000091217,1049.6030999929644,True,False
15,2,181.91588369995588,cross,"(480.0, -270.0)",0,1695.2190999872983,1066.685299971141,True,False
15,2,181.9349385999958,cross,"(480.0, -270.0)",0,1714.274000027217,1085.7402000110596,True,False
15,2,181.94903809996322,cross,"(480.0, -270.0)",0,1728.3734999946319,1099.8396999784745,True,False
15,2,181.96515589999035,cross,"(480.0, -270.0)",0,1744.491300021764,1115.9575000056066,True,False
15,2,181.982650299964,cross,"(480.0, -270.0)",0,1761.9856999954209,1133.4518999792635,True,False
15,2,181.9975226999959,cross,"(480.0, -270.0)",0,1776.8581000273116,1148.3243000111543,True,False
15,2,182.0163403999759,cross,"(480.0, -270.0)",0,1795.6758000073023,1167.141999991145,True,False
15,2,182.03156569995917,cross,"(480.0, -270.0)",0,1810.9010999905877,1182.3672999744304,True,False
15,2,182.04894469998544,cross,"(480.0, -270.0)",0,1828.2801000168547,1199.7463000006974,True,False
15,2,182.0648785000085,cross,"(480.0, -270.0)",0,1844.2139000399038,1215.6801000237465,True,False
15,2,182.08237409999128,cross,"(480.0, -270.0)",0,1861.7095000226982,1233.1757000065409,True,False
15,2,182.09833730000537,cross,"(480.0, -270.0)",0,1877.6727000367828,1249.1389000206254,True,False
15,2,182.1157830999582,cross,"(480.0, -270.0)",0,1895.1184999896213,1266.584699973464,True,False
15,2,182.13212470000144,cross,"(480.0, -270.0)",0,1911.4601000328548,1282.9263000166975,True,False
15,2,182.14965669997036,cross,"(480.0, -270.0)",0,1928.9921000017785,1300.4582999856211,True,False
15,2,182.16546339995693,cross,"(480.0, -270.0)",0,1944.798799988348,1316.2649999721907,True,False
15,2,182.18259320000652,cross,"(480.0, -270.0)",0,1961.9286000379361,1333.3948000217788,True,False
15,2,182.19862629997078,cross,"(480.0, -270.0)",0,1977.9617000021972,1349.4278999860398,True,False
15,2,182.21603409998352,cross,"(480.0, -270.0)",0,1995.369500014931,1366.8356999987736,True,False
15,2,182.23112690000562,cross,"(480.0, -270.0)",0,2010.4623000370339,1381.9285000208765,True,False
15,2,182.24948830000358,cross,"(480.0, -270.0)",0,2028.823700034991,1400.2899000188336,True,False
15,2,182.2645946999546,cross,"(480.0, -270.0)",0,2043.930099986028,1415.3962999698706,True,False
15,2,182.28240809997078,cross,"(480.0, -270.0)",0,2061.743500002194,1433.2096999860369,True,False
15,2,182.29795739997644,cross,"(480.0, -270.0)",0,2077.2928000078537,1448.7589999916963,True,False
15,2,182.31552129995544,cross,"(480.0, -270.0)",0,2094.856699986849,1466.3228999706917,True,False
15,2,182.330788799969,cross,"(480.0, -270.0)",0,2110.1242000004277,1481.5903999842703,True,False
15,2,182.34905019996222,cross,"(480.0, -270.0)",0,2128.385599993635,1499.8517999774776,True,False
15,2,182.36546040000394,cross,"(480.0, -270.0)",0,2144.7958000353537,1516.2620000191964,True,False
15,2,182.38226419995772,cross,"(480.0, -270.0)",0,2161.599599989131,1533.0657999729738,True,False
15,2,182.39852659997996,cross,"(480.0, -270.0)",0,2177.8620000113733,1549.328199995216,True,False
15,2,182.4155385000049,cross,"(480.0, -270.0)",0,2194.8739000363275,1566.3401000201702,True,False
15,2,182.43184669996845,cross,"(480.0, -270.0)",0,2211.18209999986,1582.6482999837026,True,False
15,2,182.4490339999902,cross,"(480.0, -270.0)",0,2228.36940002162,1599.8356000054628,True,False
15,2,182.46449429995846,cross,"(480.0, -270.0)",0,2243.829699989874,1615.2958999737166,True,False
15,2,182.48213359998772,cross,"(480.0, -270.0)",0,2261.469000019133,1632.9352000029758,True,False
15,2,182.49789979995694,cross,"(480.0, -270.0)",0,2277.235199988354,1648.7013999721967,True,False
15,2,182.5154823999619,cross,"(480.0, -270.0)",0,2294.817799993325,1666.2839999771677,True,False
15,2,182.53076389996568,cross,"(480.0, -270.0)",0,2310.0992999970913,1681.565499980934,True,False
15,2,182.54906220000703,cross,"(480.0, -270.0)",0,2328.3976000384428,1699.8638000222854,True,False
15,2,182.56520479999017,cross,"(480.0, -270.0)",0,2344.5402000215836,1716.0064000054263,True,False
15,2,182.58220879995497,cross,"(480.0, -270.0)",0,2361.5441999863833,1733.010399970226,True,False
15,2,182.59854149998864,cross,"(480.0, -270.0)",0,2377.8769000200555,1749.3431000038981,True,False
15,2,182.61558799998602,cross,"(480.0, -270.0)",0,2394.923400017433,1766.3896000012755,True,False
18,1,212.07242389995372,cross,"(480.0, -270.0)",266.6981999645941,1347.2815999994054,1347.2815999994054,False,True
18,2,215.1043684000033,star,"(-480.0, 270.0)",250.30020001577213,4379.226100048982,3031.944500049576,False,True
18,3,215.37186379998457,star,"(-480.0, 270.0)",264.55870002973825,4646.721500030253,267.4953999812715,True,False
18,3,215.39014759997372,star,"(-480.0, 270.0)",0,4665.005300019402,285.77919997042045,True,False
18,3,215.4050678999629,star,"(-480.0, 270.0)",0,4679.925600008573,300.6994999595918,True,False
18,3,215.42046369996388,star,"(-480.0, 270.0)",0,4695.321400009561,316.0952999605797,True,False
18,3,215.43825579999248,star,"(-480.0, 270.0)",0,4713.113500038162,333.88739998918027,True,False
18,3,215.4537792999763,star,"(-480.0, 270.0)",0,4728.63700002199,349.4108999730088,True,False
18,3,215.47180780000053,star,"(-480.0, 270.0)",0,4746.66550004622,367.43939999723807,True,False
18,3,215.48815539997304,star,"(-480.0, 270.0)",0,4763.013100018725,383.7869999697432,True,False
18,3,215.5051038999809,star,"(-480.0, 270.0)",0,4779.961600026581,400.73549997759983,True,False
18,3,215.52120719995582,star,"(-480.0, 270.0)",0,4796.064900001511,416.83879995252937,True,False
18,3,215.5384627999738,star,"(-480.0, 270.0)",0,4813.320500019472,434.0943999704905,True,False
18,3,215.554460299958,star,"(-480.0, 270.0)",0,4829.3180000036955,450.0918999547139,True,False
18,3,215.57098639995093,star,"(-480.0, 270.0)",0,4845.8440999966115,466.61799994762987,True,False
18,3,215.58653609995963,star,"(-480.0, 270.0)",0,4861.393800005317,482.1676999563351,True,False
18,3,215.60442509996938,star,"(-480.0, 270.0)",0,4879.282800015062,500.0566999660805,True,False
18,3,215.62045739998575,star,"(-480.0, 270.0)",0,4895.315100031439,516.0889999824576,True,False
18,3,215.63832599995658,star,"(-480.0, 270.0)",0,4913.183700002264,533.9575999532826,True,False
18,3,215.65350739995483,star,"(-480.0, 270.0)",0,4928.365100000519,549.1389999515377,True,False
18,3,215.671468799992,star,"(-480.0, 270.0)",0,4946.326500037685,567.1003999887034,True,False
18,3,215.68691519997083,star,"(-480.0, 270.0)",0,4961.772900016513,582.5467999675311,True,False
18,3,215.70450689998688,star,"(-480.0, 270.0)",0,4979.364600032568,600.1384999835864,True,False
18,3,215.7208735999884,star,"(-480.0, 270.0)",0,4995.731300034095,616.505199985113,True,False
18,3,215.73806609999156,star,"(-480.0, 270.0)",0,5012.9238000372425,633.6976999882609,True,False
18,3,215.75422529998468,star,"(-480.0, 270.0)",0,5029.083000030369,649.856899981387,True,False
18,3,215.77179039997282,star,"(-480.0, 270.0)",0,5046.648100018501,667.4219999695197,True,False
18,3,215.78762339998502,star,"(-480.0, 270.0)",0,5062.481100030709,683.2549999817275,True,False
18,3,215.8052153000026,star,"(-480.0, 270.0)",0,5080.073000048287,700.8468999993056,True,False
18,3,215.82021459995303,star,"(-480.0, 270.0)",0,5095.072299998719,715.8461999497376,True,False
18,3,215.83762959996238,star,"(-480.0, 270.0)",0,5112.48730000807,733.2611999590881,True,False
18,3,215.853899299982,star,"(-480.0, 270.0)",0,5128.75700002769,749.5308999787085,True,False
18,3,215.87120539997704,star,"(-480.0, 270.0)",0,5146.0631000227295,766.8369999737479,True,False
18,3,215.88682019995758,star,"(-480.0, 270.0)",0,5161.677900003269,782.4517999542877,True,False
18,3,215.9048921999638,star,"(-480.0, 270.0)",0,5179.749900009483,800.5237999605015,True,False
18,3,215.92118269996718,star,"(-480.0, 270.0)",0,5196.040400012862,816.8142999638803,True,False
18,3,215.93833989999257,star,"(-480.0, 270.0)",0,5213.1976000382565,833.9714999892749,True,False
18,3,215.95420380000724,star,"(-480.0, 270.0)",0,5229.0615000529215,849.8354000039399,True,False
18,3,215.97136689996114,star,"(-480.0, 270.0)",0,5246.224600006826,866.9984999578446,True,False
18,3,215.98776649998035,star,"(-480.0, 270.0)",0,5262.624200026039,883.3980999770574,True,False
18,3,216.0060756999883,star,"(-480.0, 270.0)",0,5280.933400033973,901.7072999849916,True,False
18,3,216.02115789998788,star,"(-480.0, 270.0)",0,5296.01560003357,916.7894999845885,True,False
18,3,216.03816199995345,star,"(-480.0, 270.0)",0,5313.019699999131,933.7935999501497,True,False
18,3,216.0529006999568,star,"(-480.0, 270.0)",0,5327.758400002494,948.5322999535128,True,False
18,3,216.07168599998113,star,"(-480.0, 270.0)",0,5346.543700026814,967.3175999778323,True,False
18,3,216.08689429995138,star,"(-480.0, 270.0)",0,5361.751999997068,982.5258999480866,True,False
18,3,216.1044640999753,star,"(-480.0, 270.0)",0,5379.321800020989,1000.0956999720074,True,False
18,3,216.1204259999795,star,"(-480.0, 270.0)",0,5395.283700025175,1016.0575999761932,True,False
18,3,216.1374309999519,star,"(-480.0, 270.0)",0,5412.288699997589,1033.0625999486074,True,False
18,3,216.1536358000012,star,"(-480.0, 270.0)",0,5428.493500046898,1049.267399997916,True,False
18,3,216.17135069996584,star,"(-480.0, 270.0)",0,5446.208400011528,1066.9822999625467,True,False
18,3,216.18656249996275,star,"(-480.0, 270.0)",0,5461.420200008433,1082.1940999594517,True,False
18,3,216.20421050000004,star,"(-480.0, 270.0)",0,5479.068200045731,1099.8420999967493,True,False
18,3,216.22023969999282,star,"(-480.0, 270.0)",0,5495.097400038503,1115.8712999895215,True,False
18,3,216.23784309998155,star,"(-480.0, 270.0)",0,5512.700800027233,1133.474699978251,True,False
18,3,216.2540597000043,star,"(-480.0, 270.0)",0,5528.917400049977,1149.6913000009954,True,False
18,3,216.27107319998322,star,"(-480.0, 270.0)",0,5545.930900028907,1166.7047999799252,True,False
18,3,216.2892135999864,star,"(-480.0, 270.0)",0,5564.071300032083,1184.8451999831013,True,False
18,3,216.30448019999312,star,"(-480.0, 270.0)",0,5579.337900038809,1200.111799989827,True,False
18,3,216.32317369995872,star,"(-480.0, 270.0)",0,5598.031400004402,1218.8052999554202,True,False
18,3,216.3422450000071,star,"(-480.0, 270.0)",0,5617.102700052783,1237.8766000038013,True,False
18,3,216.35903809999581,star,"(-480.0, 270.0)",0,5633.8958000415005,1254.6696999925189,True,False
18,3,216.37762129999464,star,"(-480.0, 270.0)",0,5652.47900004033,1273.2528999913484,True,False
18,3,216.3939715999877,star,"(-480.0, 270.0)",0,5668.829300033394,1289.6031999844126,True,False
18,3,216.40842609998072,star,"(-480.0, 270.0)",0,5683.283800026402,1304.0576999774203,True,False
18,3,216.42352239997126,star,"(-480.0, 270.0)",0,5698.380100016948,1319.1539999679662,True,False
18,3,216.43878089997452,star,"(-480.0, 270.0)",0,5713.638600020204,1334.4124999712221,True,False
18,3,216.45460900000762,star,"(-480.0, 270.0)",0,5729.466700053308,1350.2406000043266,True,False
18,3,216.47258989996044,star,"(-480.0, 270.0)",0,5747.447600006126,1368.2214999571443,True,False
18,3,216.4888141999836,star,"(-480.0, 270.0)",0,5763.671900029294,1384.4457999803126,True,False
18,3,216.50923799996963,star,"(-480.0, 270.0)",0,5784.095700015314,1404.8695999663323,True,False
18,3,216.52595250000013,star,"(-480.0, 270.0)",0,5800.810200045817,1421.584099996835,True,False
18,3,216.55335259996355,star,"(-480.0, 270.0)",0,5828.210300009232,1448.9841999602504,True,False
18,3,216.57231650000904,star,"(-480.0, 270.0)",0,5847.174200054724,1467.9481000057422,True,False
18,3,216.58871579996776,star,"(-480.0, 270.0)",0,5863.573500013445,1484.347399964463,True,False
18,3,216.60543930000858,star,"(-480.0, 270.0)",0,5880.29700005427,1501.0709000052884,True,False
18,3,216.62174839997897,star,"(-480.0, 270.0)",0,5896.6061000246555,1517.3799999756739,True,False
18,3,216.638644199993,star,"(-480.0, 270.0)",0,5913.501900038682,1534.2757999897003,True,False
18,3,216.654587899975,star,"(-480.0, 270.0)",0,5929.445600020699,1550.2194999717176,True,False
18,3,216.67251830000896,star,"(-480.0, 270.0)",0,5947.376000054646,1568.1499000056647,True,False
18,3,216.68925009999657,star,"(-480.0, 270.0)",0,5964.107800042257,1584.881699993275,True,False
18,3,216.70727329998044,star,"(-480.0, 270.0)",0,5982.131000026129,1602.9048999771476,True,False
18,3,216.7224503000034,star,"(-480.0, 270.0)",0,5997.308000049088,1618.0819000001065,True,False
18,3,216.73987379996106,star,"(-480.0, 270.0)",0,6014.7315000067465,1635.505399957765,True,False
18,3,216.7608254000079,star,"(-480.0, 270.0)",0,6035.683100053575,1656.4570000045933,True,False
18,3,216.78077700000722,star,"(-480.0, 270.0)",0,6055.634700052906,1676.4086000039242,True,False
18,3,216.79926889995113,star,"(-480.0, 270.0)",0,6074.126599996816,1694.9004999478348,True,False
18,3,216.8766493999865,star,"(-480.0, 270.0)",0,6151.507100032177,1772.2809999831952,True,False
18,3,218.76990779995685,circle,"(-480.0, -270.0)",266.56949997413903,8044.765500002541,3665.539399953559,False,True
18,4,222.6182865999872,cross,"(480.0, -270.0)",265.9323000116274,11893.144300032873,3848.378800030332,False,True
19,1,227.51727499999106,cross,"(480.0, -270.0)",264.08039999660105,1027.9123000218533,1027.9123000218533,False,True
19,2,228.5508942999877,cross,"(480.0, -270.0)",250.852000026498,2061.5316000184976,1033.6192999966443,True,False
19,2,228.57018529996276,cross,"(480.0, -270.0)",0,2080.822599993553,1052.9102999716997,True,False
19,2,228.5835689000087,cross,"(480.0, -270.0)",0,2094.20620003948,1066.2939000176266,True,False
19,2,228.59994270000607,cross,"(480.0, -270.0)",0,2110.5800000368617,1082.6677000150084,True,False
19,2,228.61747479997575,cross,"(480.0, -270.0)",0,2128.112100006547,1100.1997999846935,True,False
19,2,228.6327583999955,cross,"(480.0, -270.0)",0,2143.3957000263035,1115.4834000044502,True,False
19,2,228.65028199995868,cross,"(480.0, -270.0)",0,2160.919299989473,1133.0069999676198,True,False
19,2,228.66585279995343,cross,"(480.0, -270.0)",0,2176.490099984221,1148.5777999623679,True,False
19,2,228.68385989998933,cross,"(480.0, -270.0)",0,2194.4972000201233,1166.58489999827,True,False
19,2,228.69940159999533,cross,"(480.0, -270.0)",0,2210.0389000261202,1182.126600004267,True,False
19,2,228.7168578999699,cross,"(480.0, -270.0)",0,2227.4952000007033,1199.58289997885,True,False
19,2,228.73253370000748,cross,"(480.0, -270.0)",0,2243.1710000382736,1215.2587000164203,True,False
19,2,228.75016319996212,cross,"(480.0, -270.0)",0,2260.8004999929108,1232.8881999710575,True,False
19,2,228.76648019999266,cross,"(480.0, -270.0)",0,2277.1175000234507,1249.2052000015974,True,False
19,2,228.78379620000487,cross,"(480.0, -270.0)",0,2294.433500035666,1266.5212000138126,True,False
19,2,228.80006849998608,cross,"(480.0, -270.0)",0,2310.7058000168763,1282.793499995023,True,False
19,2,228.8169876000029,cross,"(480.0, -270.0)",0,2327.6249000336975,1299.7126000118442,True,False
19,2,228.83328489999985,cross,"(480.0, -270.0)",0,2343.922200030647,1316.009900008794,True,False
19,2,228.85047699999996,cross,"(480.0, -270.0)",0,2361.1143000307493,1333.202000008896,True,False
19,2,228.8689214999904,cross,"(480.0, -270.0)",0,2379.5588000211865,1351.6464999993332,True,False
19,2,228.88477069995133,cross,"(480.0, -270.0)",0,2395.407999982126,1367.4956999602728,True,False
19,2,228.8996498999768,cross,"(480.0, -270.0)",0,2410.2872000075877,1382.3748999857344,True,False
19,2,228.91726069996366,cross,"(480.0, -270.0)",0,2427.8979999944568,1399.9856999726035,True,False
19,2,228.93340729997726,cross,"(480.0, -270.0)",0,2444.0446000080556,1416.1322999862023,True,False
19,2,228.9509495999664,cross,"(480.0, -270.0)",0,2461.586899997201,1433.6745999753475,True,False
19,2,228.96619309997186,cross,"(480.0, -270.0)",0,2476.8304000026546,1448.9180999808013,True,False
19,2,228.98431999998866,cross,"(480.0, -270.0)",0,2494.9573000194505,1467.0449999975972,True,False
19,2,229.00073859997792,cross,"(480.0, -270.0)",0,2511.3759000087157,1483.4635999868624,True,False
19,2,229.01768079999601,cross,"(480.0, -270.0)",0,2528.3181000268087,1500.4058000049554,True,False
19,2,229.03381749999244,cross,"(480.0, -270.0)",0,2544.4548000232317,1516.5425000013784,True,False
19,2,229.05075229995418,cross,"(480.0, -270.0)",0,2561.3895999849774,1533.477299963124,True,False
19,2,229.06619089999003,cross,"(480.0, -270.0)",0,2576.8282000208274,1548.915899998974,True,False
19,2,229.08428879996063,cross,"(480.0, -270.0)",0,2594.926099991426,1567.0137999695726,True,False
19,2,229.0997862999793,cross,"(480.0, -270.0)",0,2610.423600010108,1582.511299988255,True,False
19,2,229.1173654999584,cross,"(480.0, -270.0)",0,2628.00279998919,1600.0904999673367,True,False
19,2,229.13271609996445,cross,"(480.0, -270.0)",0,2643.3533999952488,1615.4410999733955,True,False
19,2,229.15064999996684,cross,"(480.0, -270.0)",0,2661.287299997639,1633.3749999757856,True,False
19,2,229.16668199998094,cross,"(480.0, -270.0)",0,2677.3193000117317,1649.4069999898784,True,False
19,2,229.18389169999864,cross,"(480.0, -270.0)",0,2694.5290000294335,1666.6167000075802,True,False
19,2,229.19969569996465,cross,"(480.0, -270.0)",0,2710.332999995444,1682.4206999735907,True,False
19,2,229.21690209995722,cross,"(480.0, -270.0)",0,2727.539399988018,1699.6270999661647,True,False
19,2,229.23292189999484,cross,"(480.0, -270.0)",0,2743.5592000256293,1715.646900003776,True,False
19,2,229.25061619997723,cross,"(480.0, -270.0)",0,2761.2535000080243,1733.341199986171,True,False
19,2,229.2668668999686,cross,"(480.0, -270.0)",0,2777.5041999993846,1749.5918999775313,True,False
19,2,229.28395169996656,cross,"(480.0, -270.0)",0,2794.5889999973588,1766.6766999755055,True,False
19,2,229.3000541999936,cross,"(480.0, -270.0)",0,2810.6915000244044,1782.779200002551,True,False
19,2,232.84866659995168,star,"(-480.0, 270.0)",266.78539998829365,6359.3038999824785,5331.391599960625,False,True
19,3,234.56522519997088,star,"(-480.0, 270.0)",265.68549999501556,8075.862500001676,1716.558600019198,True,False
19,3,234.58393139997497,star,"(-480.0, 270.0)",0,8094.568700005766,1735.2648000232875,True,False
19,3,234.597978100006,star,"(-480.0, 270.0)",0,8108.615400036797,1749.3115000543185,True,False
19,3,234.61535769997863,star,"(-480.0, 270.0)",0,8125.995000009425,1766.6911000269465,True,False
19,3,234.63180669996655,star,"(-480.0, 270.0)",0,8142.44399999734,1783.1401000148617,True,False
20,1,245.760547199985,circle,"(-480.0, -270.0)",266.14969997899607,3861.363700008951,3861.363700008951,False,True
20,2,246.02771829999983,circle,"(-480.0, -270.0)",264.46720003150403,4128.534800023772,267.1711000148207,True,False
20,2,246.04660479997983,circle,"(-480.0, -270.0)",0,4147.421300003771,286.0575999948196,True,False
20,2,246.06160159996944,circle,"(-480.0, -270.0)",0,4162.418099993374,301.05439998442307,True,False
20,2,246.07690990000265,circle,"(-480.0, -270.0)",0,4177.726400026586,316.3627000176348,True,False
20,2,246.09476069995435,circle,"(-480.0, -270.0)",0,4195.577199978288,334.21349996933714,True,False
20,2,246.11012829997344,circle,"(-480.0, -270.0)",0,4210.944799997378,349.581099988427,True,False
20,2,246.12780139996903,circle,"(-480.0, -270.0)",0,4228.617899992969,367.25419998401776,True,False
20,2,246.14364759996533,circle,"(-480.0, -270.0)",0,4244.464099989273,383.1003999803215,True,False
20,2,246.1615080999909,circle,"(-480.0, -270.0)",0,4262.324600014836,400.96090000588447,True,False
20,2,246.17756399995415,circle,"(-480.0, -270.0)",0,4278.380499978084,417.016799969133,True,False
20,2,246.1945629999973,circle,"(-480.0, -270.0)",0,4295.379500021227,434.0158000122756,True,False
20,2,246.2109383000061,circle,"(-480.0, -270.0)",0,4311.75480003003,450.3911000210792,True,False
20,2,246.22796879999805,circle,"(-480.0, -270.0)",0,4328.785300021991,467.42160001304,True,False
20,2,246.244160000002,circle,"(-480.0, -270.0)",0,4344.97650002595,483.61280001699924,True,False
20,2,246.2619391999906,circle,"(-480.0, -270.0)",0,4362.755700014532,501.3920000055805,True,False
20,2,246.2763012999785,circle,"(-480.0, -270.0)",0,4377.117800002452,515.7540999935009,True,False
20,2,246.2949880999513,circle,"(-480.0, -270.0)",0,4395.804599975236,534.4408999662846,True,False
20,2,246.31005599995842,circle,"(-480.0, -270.0)",0,4410.872499982361,549.5087999734096,True,False
20,2,246.3277215999551,circle,"(-480.0, -270.0)",0,4428.5380999790505,567.1743999700993,True,False
20,2,246.34334839996882,circle,"(-480.0, -270.0)",0,4444.164899992757,582.8011999838054,True,False
20,2,246.36100889998488,circle,"(-480.0, -270.0)",0,4461.82540000882,600.4616999998689,True,False
20,2,246.37665809999453,circle,"(-480.0, -270.0)",0,4477.474600018468,616.1109000095166,True,False
20,2,246.39451660000486,circle,"(-480.0, -270.0)",0,4495.333100028802,633.9694000198506,True,False
20,2,246.41077560000122,circle,"(-480.0, -270.0)",0,4511.592100025155,650.2284000162035,True,False
20,2,246.4277679999941,circle,"(-480.0, -270.0)",0,4528.584500018042,667.2208000090905,True,False
20,2,246.44389689998934,circle,"(-480.0, -270.0)",0,4544.713400013279,683.349700004328,True,False
20,2,246.46118009998463,circle,"(-480.0, -270.0)",0,4561.99660000857,700.6328999996185,True,False
20,2,246.4761509000091,circle,"(-480.0, -270.0)",0,4576.967400033027,715.6037000240758,True,False
20,2,246.49434069998097,circle,"(-480.0, -270.0)",0,4595.1572000049055,733.7934999959543,True,False
20,2,246.5099135999917,circle,"(-480.0, -270.0)",0,4610.730100015644,749.3664000066929,True,False
20,2,246.5275095999823,circle,"(-480.0, -270.0)",0,4628.326100006234,766.9623999972828,True,False
20,2,246.54325529997004,circle,"(-480.0, -270.0)",0,4644.071799993981,782.7080999850295,True,False
20,2,246.56126859999495,circle,"(-480.0, -270.0)",0,4662.085100018885,800.7214000099339,True,False
20,2,246.57670629996574,circle,"(-480.0, -270.0)",0,4677.522799989674,816.1590999807231,True,False
20,2,246.59444089996396,circle,"(-480.0, -270.0)",0,4695.257399987895,833.8936999789439,True,False
20,2,246.6103213999886,circle,"(-480.0, -270.0)",0,4711.137900012545,849.7742000035942,True,False
20,2,246.62777229998028,circle,"(-480.0, -270.0)",0,4728.588800004218,867.2250999952666,True,False
20,2,246.64315530000022,circle,"(-480.0, -270.0)",0,4743.9718000241555,882.6081000152044,True,False
20,2,246.66632489999756,circle,"(-480.0, -270.0)",0,4767.141400021501,905.7777000125498,True,False
20,2,246.67781089997152,circle,"(-480.0, -270.0)",0,4778.627399995457,917.2636999865063,True,False
20,2,246.69405220000772,circle,"(-480.0, -270.0)",0,4794.868700031657,933.5050000227056,True,False
20,2,246.71042929997202,circle,"(-480.0, -270.0)",0,4811.245799995959,949.8820999870077,True,False
20,2,246.7279462000006,circle,"(-480.0, -270.0)",0,4828.762700024527,967.3990000155754,True,False
20,2,246.74423779995413,circle,"(-480.0, -270.0)",0,4845.054299978074,983.6905999691226,True,False
20,2,246.7612558999681,circle,"(-480.0, -270.0)",0,4862.07239999203,1000.708699983079,True,False
20,2,246.77782089996617,circle,"(-480.0, -270.0)",0,4878.637399990112,1017.2736999811605,True,False
20,2,246.7959841999691,circle,"(-480.0, -270.0)",0,4896.800699993037,1035.4369999840856,True,False
20,2,246.8111289999797,circle,"(-480.0, -270.0)",0,4911.94550000364,1050.5817999946885,True,False
20,2,246.8301021999796,circle,"(-480.0, -270.0)",0,4930.918700003531,1069.5549999945797,True,False
20,2,246.848565399996,circle,"(-480.0, -270.0)",0,4949.381900019944,1088.0182000109926,True,False
20,2,246.86480529996334,circle,"(-480.0, -270.0)",0,4965.621799987275,1104.258099978324,True,False
20,2,246.8800607000012,circle,"(-480.0, -270.0)",0,4980.877200025134,1119.5135000161827,True,False
20,2,246.89568459999282,circle,"(-480.0, -270.0)",0,4996.501100016758,1135.1374000078067,True,False
20,2,246.90951969998423,circle,"(-480.0, -270.0)",0,5010.336200008169,1148.9724999992177,True,False
20,2,246.9277935999562,circle,"(-480.0, -270.0)",0,5028.610099980142,1167.2463999711908,True,False
20,2,246.94336289999774,circle,"(-480.0, -270.0)",0,5044.179400021676,1182.8157000127248,True,False
20,2,246.96065739996266,circle,"(-480.0, -270.0)",0,5061.473899986595,1200.1101999776438,True,False
20,2,246.97624589997577,circle,"(-480.0, -270.0)",0,5077.062399999704,1215.698699990753,True,False
20,2,246.9940696999547,circle,"(-480.0, -270.0)",0,5094.886199978646,1233.5224999696948,True,False
20,2,247.01001849997556,circle,"(-480.0, -270.0)",0,5110.834999999497,1249.471299990546,True,False
20,2,247.02732449996984,circle,"(-480.0, -270.0)",0,5128.140999993775,1266.777299984824,True,False
20,2,247.044573399995,circle,"(-480.0, -270.0)",0,5145.389900018927,1284.0262000099756,True,False
20,2,247.06198599998606,circle,"(-480.0, -270.0)",0,5162.802500010002,1301.4388000010513,True,False
20,2,247.07723529997747,circle,"(-480.0, -270.0)",0,5178.051800001413,1316.6880999924615,True,False
20,2,247.0945672999951,circle,"(-480.0, -270.0)",0,5195.383800019044,1334.0201000100933,True,False
20,2,247.11065599997528,circle,"(-480.0, -270.0)",0,5211.472499999218,1350.1087999902666,True,False
20,2,247.1276485999697,circle,"(-480.0, -270.0)",0,5228.4650999936275,1367.1013999846764,True,False
20,2,247.1441027999972,circle,"(-480.0, -270.0)",0,5244.919300021138,1383.555600012187,True,False
20,2,247.16102409997256,circle,"(-480.0, -270.0)",0,5261.840599996503,1400.4768999875523,True,False
20,2,247.17628529999638,circle,"(-480.0, -270.0)",0,5277.1018000203185,1415.7381000113674,True,False
20,2,247.19442189997062,circle,"(-480.0, -270.0)",0,5295.23839999456,1433.8746999856085,True,False
20,2,247.21001729997806,circle,"(-480.0, -270.0)",0,5310.833800002001,1449.47009999305,True,False
20,2,247.22783119999804,circle,"(-480.0, -270.0)",0,5328.647700021975,1467.2840000130236,True,False
20,2,247.24349649995565,circle,"(-480.0, -270.0)",0,5344.312999979593,1482.9492999706417,True,False
20,2,247.26169359998312,circle,"(-480.0, -270.0)",0,5362.510100007057,1501.146399998106,True,False
20,2,247.27668079995783,circle,"(-480.0, -270.0)",0,5377.497299981769,1516.133599972818,True,False
20,2,247.29520769999363,circle,"(-480.0, -270.0)",0,5396.024200017564,1534.6605000086129,True,False
20,2,247.3115651999833,circle,"(-480.0, -270.0)",0,5412.381700007245,1551.0179999982938,True,False
20,2,247.32779049995588,circle,"(-480.0, -270.0)",0,5428.60699997982,1567.243299970869,True,False
20,2,247.34394239995163,circle,"(-480.0, -270.0)",0,5444.758899975568,1583.395199966617,True,False
20,2,247.36415879998822,circle,"(-480.0, -270.0)",0,5464.975300012156,1603.6116000032052,True,False
20,2,247.37640969996573,circle,"(-480.0, -270.0)",0,5477.226199989673,1615.8624999807216,True,False
20,2,247.39420439995592,circle,"(-480.0, -270.0)",0,5495.020899979863,1633.6571999709122,True,False
20,2,247.41059769998537,circle,"(-480.0, -270.0)",0,5511.4142000093125,1650.0505000003614,True,False
20,2,247.4274911999819,circle,"(-480.0, -270.0)",0,5528.307700005826,1666.9439999968745,True,False
20,2,247.44284199998947,circle,"(-480.0, -270.0)",0,5543.658500013407,1682.2948000044562,True,False
20,2,247.46077750000404,circle,"(-480.0, -270.0)",0,5561.594000027981,1700.2303000190295,True,False
20,2,247.47647539997706,circle,"(-480.0, -270.0)",0,5577.291900001001,1715.9281999920495,True,False
20,2,247.4940194999799,circle,"(-480.0, -270.0)",0,5594.836000003852,1733.4722999949008,True,False
20,2,247.50965599995106,circle,"(-480.0, -270.0)",0,5610.472499975003,1749.1087999660522,True,False
20,2,247.5274822000065,circle,"(-480.0, -270.0)",0,5628.298700030427,1766.9350000214763,True,False
21,1,262.4044194999733,circle,"(-480.0, -270.0)",265.1625999715179,896.9787000096403,896.9787000096403,False,True
21,2,262.67345099995146,circle,"(-480.0, -270.0)",266.12419995944947,1166.0101999877952,269.0314999781549,True,False
21,2,262.6913901999942,circle,"(-480.0, -270.0)",0,1183.9494000305422,286.97070002090186,True,False
21,2,262.7053198000067,circle,"(-480.0, -270.0)",0,1197.8790000430308,300.9003000333905,True,False
21,2,262.7226062999689,circle,"(-480.0, -270.0)",0,1215.1655000052415,318.1867999956012,True,False
21,2,262.7387311999919,circle,"(-480.0, -270.0)",0,1231.2904000282288,334.31170001858845,True,False
21,2,262.7557336000027,circle,"(-480.0, -270.0)",0,1248.292800039053,351.31410002941266,True,False
21,2,262.77121019997867,circle,"(-480.0, -270.0)",0,1263.7694000150077,366.7907000053674,True,False
21,2,262.78948099998524,circle,"(-480.0, -270.0)",0,1282.0402000215836,385.0615000119433,True,False
21,2,262.80540949996794,circle,"(-480.0, -270.0)",0,1297.968700004276,400.9899999946356,True,False
21,2,262.82256870000856,circle,"(-480.0, -270.0)",0,1315.1279000448994,418.1492000352591,True,False
21,2,262.83795899996767,circle,"(-480.0, -270.0)",0,1330.5182000040077,433.53949999436736,True,False
21,2,262.8561582999537,circle,"(-480.0, -270.0)",0,1348.7174999900162,451.7387999803759,True,False
21,2,262.8717061000061,circle,"(-480.0, -270.0)",0,1364.2653000424616,467.2866000328213,True,False
21,2,262.8895494999597,circle,"(-480.0, -270.0)",0,1382.1086999960244,485.12999998638406,True,False
21,2,262.90580169996247,circle,"(-480.0, -270.0)",0,1398.3608999988064,501.3821999891661,True,False
21,2,262.9232169999741,circle,"(-480.0, -270.0)",0,1415.7762000104412,518.7975000008009,True,False
21,2,262.93908849998843,circle,"(-480.0, -270.0)",0,1431.6477000247687,534.6690000151284,True,False
21,2,262.9559937999584,circle,"(-480.0, -270.0)",0,1448.5529999947175,551.5742999850772,True,False
21,2,262.9723943999852,circle,"(-480.0, -270.0)",0,1464.9536000215448,567.9749000119045,True,False
21,2,262.98938049998833,circle,"(-480.0, -270.0)",0,1481.9397000246681,584.9610000150278,True,False
21,2,263.00438090000534,circle,"(-480.0, -270.0)",0,1496.9401000416838,599.9614000320435,True,False
21,2,263.0223349999869,circle,"(-480.0, -270.0)",0,1514.8942000232637,617.9155000136234,True,False
21,2,263.0378891999717,circle,"(-480.0, -270.0)",0,1530.4484000080265,633.4696999983862,True,False
21,2,263.05572099995334,circle,"(-480.0, -270.0)",0,1548.2801999896765,651.3014999800362,True,False
21,2,263.07189779996406,circle,"(-480.0, -270.0)",0,1564.4570000004023,667.478299990762,True,False
21,2,263.0892522999784,circle,"(-480.0, -270.0)",0,1581.8115000147372,684.8328000050969,True,False
21,2,263.10463319998235,circle,"(-480.0, -270.0)",0,1597.1924000186846,700.2137000090443,True,False
21,2,263.12271629995666,circle,"(-480.0, -270.0)",0,1615.275499993004,718.2967999833636,True,False
21,2,263.1388257999788,circle,"(-480.0, -270.0)",0,1631.3850000151433,734.406300005503,True,False
21,2,263.15582759998506,circle,"(-480.0, -270.0)",0,1648.3868000213988,751.4081000117585,True,False
21,2,263.1721856999793,circle,"(-480.0, -270.0)",0,1664.7449000156485,767.7662000060081,True,False
21,2,263.1892036999925,circle,"(-480.0, -270.0)",0,1681.7629000288434,784.7842000192031,True,False
21,2,263.2055768999853,circle,"(-480.0, -270.0)",0,1698.1361000216566,801.1574000120163,True,False
21,2,263.2224921999732,circle,"(-480.0, -270.0)",0,1715.0514000095427,818.0726999999024,True,False
21,2,263.23740509996423,circle,"(-480.0, -270.0)",0,1729.9643000005744,832.9855999909341,True,False
21,2,263.2555001999717,circle,"(-480.0, -270.0)",0,1748.05940000806,851.0806999984197,True,False
21,2,263.2708229999989,circle,"(-480.0, -270.0)",0,1763.3822000352666,866.4035000256263,True,False
21,2,263.28899949998595,circle,"(-480.0, -270.0)",0,1781.5587000222877,884.5800000126474,True,False
21,2,263.3044885999989,circle,"(-480.0, -270.0)",0,1797.047800035216,900.0691000255756,True,False
21,2,263.3223030999652,circle,"(-480.0, -270.0)",0,1814.8623000015505,917.8835999919102,True,False
21,2,263.337751199957,circle,"(-480.0, -270.0)",0,1830.3103999933228,933.3316999836825,True,False
21,2,263.35552609997103,circle,"(-480.0, -270.0)",0,1848.0853000073694,951.1065999977291,True,False
21,2,263.372169499984,circle,"(-480.0, -270.0)",0,1864.7287000203505,967.7500000107102,True,False
21,2,263.3889563999837,circle,"(-480.0, -270.0)",0,1881.515600020066,984.5369000104256,True,False
21,2,263.4054766999907,circle,"(-480.0, -270.0)",0,1898.0359000270255,1001.0572000173852,True,False
21,2,263.4225230999873,circle,"(-480.0, -270.0)",0,1915.0823000236414,1018.1036000140011,True,False
21,2,263.43897049996303,circle,"(-480.0, -270.0)",0,1931.5296999993734,1034.550999989733,True,False
21,2,263.45567900000606,circle,"(-480.0, -270.0)",0,1948.2382000423968,1051.2595000327565,True,False
21,2,263.4718060999876,circle,"(-480.0, -270.0)",0,1964.3653000239283,1067.386600014288,True,False
21,2,263.4888191999635,circle,"(-480.0, -270.0)",0,1981.3783999998122,1084.399699990172,True,False
21,2,263.50398869998753,circle,"(-480.0, -270.0)",0,1996.5479000238702,1099.5692000142299,True,False
21,2,263.5222150000045,circle,"(-480.0, -270.0)",0,2014.774200040847,1117.7955000312068,True,False
21,2,263.5375028999988,circle,"(-480.0, -270.0)",0,2030.0621000351384,1133.0834000254981,True,False
21,2,263.5562110999599,circle,"(-480.0, -270.0)",0,2048.7702999962494,1151.791599986609,True,False
21,2,263.57099819998257,circle,"(-480.0, -270.0)",0,2063.557400018908,1166.5787000092678,True,False
21,2,263.5889383999747,circle,"(-480.0, -270.0)",0,2081.497600011062,1184.5189000014216,True,False
21,2,263.60467169998446,circle,"(-480.0, -270.0)",0,2097.2309000208043,1200.252200011164,True,False
21,2,263.6221252999967,circle,"(-480.0, -270.0)",0,2114.684500033036,1217.7058000233956,True,False
21,2,263.63788339996245,circle,"(-480.0, -270.0)",0,2130.442599998787,1233.4638999891467,True,False
21,2,263.6555632999516,circle,"(-480.0, -270.0)",0,2148.1224999879487,1251.1437999783084,True,False
21,2,263.6720614999649,circle,"(-480.0, -270.0)",0,2164.620700001251,1267.6419999916106,True,False
21,2,263.6886747999815,circle,"(-480.0, -270.0)",0,2181.2340000178665,1284.2553000082262,True,False
21,2,263.7053233999759,circle,"(-480.0, -270.0)",0,2197.8826000122353,1300.903900002595,True,False
21,2,263.72504629998,circle,"(-480.0, -270.0)",0,2217.6055000163615,1320.6268000067212,True,False
21,2,263.7376439999789,circle,"(-480.0, -270.0)",0,2230.2032000152394,1333.224500005599,True,False
21,2,263.7555291999597,circle,"(-480.0, -270.0)",0,2248.0883999960497,1351.1096999864094,True,False
21,2,263.77198719995795,circle,"(-480.0, -270.0)",0,2264.5463999942876,1367.5676999846473,True,False
21,2,263.7888769999845,circle,"(-480.0, -270.0)",0,2281.436200020835,1384.4575000111945,True,False
21,2,263.8042263999814,circle,"(-480.0, -270.0)",0,2296.785600017756,1399.806900008116,True,False
21,2,263.82221039995784,circle,"(-480.0, -270.0)",0,2314.769599994179,1417.7908999845386,True,False
21,2,263.83777689997805,circle,"(-480.0, -270.0)",0,2330.3361000143923,1433.357400004752,True,False
21,2,263.8557235999615,circle,"(-480.0, -270.0)",0,2348.2827999978326,1451.3040999881923,True,False
21,2,263.87247389997356,circle,"(-480.0, -270.0)",0,2365.033100009896,1468.0544000002556,True,False
21,2,263.88904899999034,circle,"(-480.0, -270.0)",0,2381.608200026676,1484.6295000170358,True,False
21,2,263.90549149998697,circle,"(-480.0, -270.0)",0,2398.0507000233047,1501.0720000136644,True,False
21,2,263.9222737000091,circle,"(-480.0, -270.0)",0,2414.8329000454396,1517.8542000357993,True,False
21,2,263.93868019996444,circle,"(-480.0, -270.0)",0,2431.239400000777,1534.2606999911368,True,False
21,2,263.9554361999617,circle,"(-480.0, -270.0)",0,2447.9953999980353,1551.016699988395,True,False
21,2,263.9719923000084,circle,"(-480.0, -270.0)",0,2464.551500044763,1567.5728000351228,True,False
21,2,263.98842599999625,circle,"(-480.0, -270.0)",0,2480.985200032592,1584.0065000229515,True,False
21,2,264.00505429995246,circle,"(-480.0, -270.0)",0,2497.613499988802,1600.6347999791615,True,False
21,2,264.0218579999637,circle,"(-480.0, -270.0)",0,2514.4172000000253,1617.438499990385,True,False
21,2,264.03769269998884,circle,"(-480.0, -270.0)",0,2530.2519000251777,1633.2732000155374,True,False
21,2,264.0552530999994,circle,"(-480.0, -270.0)",0,2547.81230003573,1650.8336000260897,True,False
21,2,264.07089109998196,circle,"(-480.0, -270.0)",0,2563.450300018303,1666.4716000086628,True,False
21,2,264.0889467999805,circle,"(-480.0, -270.0)",0,2581.506000016816,1684.5273000071757,True,False
21,2,264.1043251999654,circle,"(-480.0, -270.0)",0,2596.884400001727,1699.9056999920867,True,False
21,2,264.12205219996395,circle,"(-480.0, -270.0)",0,2614.6114000002854,1717.632699990645,True,False
21,2,264.1387499999837,circle,"(-480.0, -270.0)",0,2631.3092000200413,1734.330500010401,True,False
21,2,264.1557345999754,circle,"(-480.0, -270.0)",0,2648.293800011743,1751.3151000021026,True,False
21,2,264.1720407999819,circle,"(-480.0, -270.0)",0,2664.600000018254,1767.6213000086136,True,False
21,2,264.1890942999744,circle,"(-480.0, -270.0)",0,2681.653500010725,1784.6748000010848,True,False
21,2,264.2050448000082,circle,"(-480.0, -270.0)",0,2697.604000044521,1800.6253000348806,True,False
21,2,265.4042215999798,cross,"(480.0, -270.0)",266.0981999943033,3896.7808000161313,2999.802100006491,False,True
21,3,265.67118099995423,cross,"(480.0, -270.0)",263.0271999514662,4163.7401999905705,266.9593999744393,True,False
21,3,265.69039499998325,cross,"(480.0, -270.0)",0,4182.954200019594,286.17340000346303,True,False
21,3,265.70374009996885,cross,"(480.0, -270.0)",0,4196.299300005194,299.51849998906255,True,False
21,3,265.72126439999556,cross,"(480.0, -270.0)",0,4213.823600031901,317.0428000157699,True,False
21,3,265.7371829999611,cross,"(480.0, -270.0)",0,4229.742199997418,332.9613999812864,True,False
21,3,265.75443599995924,cross,"(480.0, -270.0)",0,4246.995199995581,350.2143999794498,True,False
21,3,265.77118229999905,cross,"(480.0, -270.0)",0,4263.741500035394,366.96070001926273,True,False
21,3,265.78823179996107,cross,"(480.0, -270.0)",0,4280.790999997407,384.01019998127595,True,False
21,3,265.80444989999523,cross,"(480.0, -270.0)",0,4297.009100031573,400.2283000154421,True,False
21,3,265.8216379999649,cross,"(480.0, -270.0)",0,4314.197200001217,417.4163999850862,True,False
21,3,265.8377984999679,cross,"(480.0, -270.0)",0,4330.357700004242,433.5768999881111,True,False
21,3,265.8549934999901,cross,"(480.0, -270.0)",0,4347.5527000264265,450.7719000102952,True,False
21,3,265.8699565999559,cross,"(480.0, -270.0)",0,4362.515799992252,465.7349999761209,True,False
21,3,265.89391839999007,cross,"(480.0, -270.0)",0,4386.47760002641,489.6968000102788,True,False
21,3,265.9056610999978,cross,"(480.0, -270.0)",0,4398.220300034154,501.43950001802295,True,False
21,3,265.9216226999997,cross,"(480.0, -270.0)",0,4414.181900036056,517.4011000199243,True,False
21,3,265.9371654999559,cross,"(480.0, -270.0)",0,4429.724699992221,532.9438999760896,True,False
21,3,265.95468269998673,cross,"(480.0, -270.0)",0,4447.241900023073,550.4611000069417,True,False
21,3,265.97126129997196,cross,"(480.0, -270.0)",0,4463.820500008296,567.039699992165,True,False
21,3,265.98832979996223,cross,"(480.0, -270.0)",0,4480.8889999985695,584.1081999824382,True,False
21,3,266.00455839995993,cross,"(480.0, -270.0)",0,4497.1175999962725,600.3367999801412,True,False
21,3,266.0214269999997,cross,"(480.0, -270.0)",0,4513.986200036015,617.2054000198841,True,False
21,3,266.0378696999978,cross,"(480.0, -270.0)",0,4530.428900034167,633.6481000180356,True,False
21,3,266.0541935999645,cross,"(480.0, -270.0)",0,4546.7528000008315,649.9719999847002,True,False
21,3,266.0705682999687,cross,"(480.0, -270.0)",0,4563.127500005066,666.3466999889351,True,False
21,3,266.0881045999704,cross,"(480.0, -270.0)",0,4580.663800006732,683.8829999906011,True,False
21,3,266.10348809999414,cross,"(480.0, -270.0)",0,4596.047300030477,699.2665000143461,True,False
21,3,266.1212367999833,cross,"(480.0, -270.0)",0,4613.796000019647,717.0152000035159,True,False
21,3,266.13709119998384,cross,"(480.0, -270.0)",0,4629.650400020182,732.8696000040509,True,False
21,3,266.1552717000013,cross,"(480.0, -270.0)",0,4647.830900037661,751.0501000215299,True,False
21,3,266.1710007999791,cross,"(480.0, -270.0)",0,4663.560000015423,766.7791999992914,True,False
21,3,266.18810729996767,cross,"(480.0, -270.0)",0,4680.666500004008,783.8856999878772,True,False
21,3,266.2043784999987,cross,"(480.0, -270.0)",0,4696.9377000350505,800.1569000189193,True,False
21,3,266.2212501000031,cross,"(480.0, -270.0)",0,4713.809300039429,817.028500023298,True,False
21,3,266.23612899996806,cross,"(480.0, -270.0)",0,4728.688200004399,831.9073999882676,True,False
21,3,266.25474619999295,cross,"(480.0, -270.0)",0,4747.3054000292905,850.5246000131592,True,False
21,3,266.27045449998695,cross,"(480.0, -270.0)",0,4763.0137000232935,866.2329000071622,True,False
21,3,266.28781690000324,cross,"(480.0, -270.0)",0,4780.376100039575,883.595300023444,True,False
21,3,266.3034187000012,cross,"(480.0, -270.0)",0,4795.977900037542,899.1971000214107,True,False
21,3,266.32106529996963,cross,"(480.0, -270.0)",0,4813.624500005972,916.8436999898404,True,False
21,3,266.3376510999515,cross,"(480.0, -270.0)",0,4830.210299987812,933.4294999716803,True,False
21,3,266.3547353000031,cross,"(480.0, -270.0)",0,4847.294500039425,950.5137000232935,True,False
21,3,266.37088770000264,cross,"(480.0, -270.0)",0,4863.44690003898,966.6661000228487,True,False
21,3,266.38796409999486,cross,"(480.0, -270.0)",0,4880.5233000312,983.7425000150688,True,False
21,3,266.40408789995126,cross,"(480.0, -270.0)",0,4896.647099987604,999.8662999714725,True,False
21,3,266.42125389998546,cross,"(480.0, -270.0)",0,4913.813100021798,1017.0323000056669,True,False
21,3,266.43630119995214,cross,"(480.0, -270.0)",0,4928.86039998848,1032.0795999723487,True,False
21,3,266.45437499997206,cross,"(480.0, -270.0)",0,4946.9342000084,1050.1533999922685,True,False
21,3,266.47002199996496,cross,"(480.0, -270.0)",0,4962.581200001296,1065.8003999851644,True,False
21,3,266.4874582999619,cross,"(480.0, -270.0)",0,4980.017499998212,1083.2366999820806,True,False
21,3,266.50307719997363,cross,"(480.0, -270.0)",0,4995.636400009971,1098.8555999938399,True,False
21,3,266.5209115999751,cross,"(480.0, -270.0)",0,5013.470800011419,1116.6899999952875,True,False
21,3,266.53674499999033,cross,"(480.0, -270.0)",0,5029.304200026672,1132.523400010541,True,False
21,3,266.5546387999784,cross,"(480.0, -270.0)",0,5047.19800001476,1150.4171999986283,True,False
21,3,266.5708353999653,cross,"(480.0, -270.0)",0,5063.394600001629,1166.6137999854982,True,False
21,3,266.58796629996505,cross,"(480.0, -270.0)",0,5080.525500001386,1183.7446999852546,True,False
21,3,266.60418039996875,cross,"(480.0, -270.0)",0,5096.739600005094,1199.9587999889627,True,False
21,3,266.6211488999543,cross,"(480.0, -270.0)",0,5113.7080999906175,1216.9272999744862,True,False
21,3,266.63716929999646,cross,"(480.0, -270.0)",0,5129.7285000327975,1232.9477000166662,True,False
21,3,266.65454399999,cross,"(480.0, -270.0)",0,5147.103200026322,1250.322400010191,True,False
21,3,266.669763199985,cross,"(480.0, -270.0)",0,5162.322400021367,1265.5416000052355,True,False
21,3,266.68770809995476,cross,"(480.0, -270.0)",0,5180.267299991101,1283.4864999749698,True,False
21,3,266.7034053999814,cross,"(480.0, -270.0)",0,5195.96460001776,1299.1838000016287,True,False
21,3,266.72129049996147,cross,"(480.0, -270.0)",0,5213.849699997809,1317.0688999816775,True,False
21,3,266.73656389996177,cross,"(480.0, -270.0)",0,5229.123099998105,1332.342299981974,True,False
21,3,266.75428719999036,cross,"(480.0, -270.0)",0,5246.846400026698,1350.0656000105664,True,False
21,3,266.769990700006,cross,"(480.0, -270.0)",0,5262.549900042359,1365.7691000262275,True,False
21,3,266.7875946999993,cross,"(480.0, -270.0)",0,5280.153900035657,1383.3731000195257,True,False
21,3,266.8029935999657,cross,"(480.0, -270.0)",0,5295.552800002042,1398.771999985911,True,False
21,3,266.8208011999959,cross,"(480.0, -270.0)",0,5313.360400032252,1416.5796000161208,True,False
21,3,266.8375839999644,cross,"(480.0, -270.0)",0,5330.143200000748,1433.3623999846168,True,False
21,3,266.8544242999633,cross,"(480.0, -270.0)",0,5346.983499999624,1450.2026999834925,True,False
21,3,266.87070649996167,cross,"(480.0, -270.0)",0,5363.26569999801,1466.4848999818787,True,False
21,3,266.8877516000066,cross,"(480.0, -270.0)",0,5380.310800042935,1483.5300000268035,True,False
21,3,266.90415109996684,cross,"(480.0, -270.0)",0,5396.710300003178,1499.9294999870472,True,False
21,3,266.9212406000006,cross,"(480.0, -270.0)",0,5413.799800036941,1517.0190000208095,True,False
21,3,266.93617979995906,cross,"(480.0, -270.0)",0,5428.738999995403,1531.9581999792717,True,False
21,3,266.954256099998,cross,"(480.0, -270.0)",0,5446.815300034359,1550.0345000182278,True,False
21,3,266.96963939996203,cross,"(480.0, -270.0)",0,5462.1985999983735,1565.4177999822423,True,False
21,3,266.98822569998447,cross,"(480.0, -270.0)",0,5480.784900020808,1584.0041000046767,True,False
21,3,267.00331800000276,cross,"(480.0, -270.0)",0,5495.877200039104,1599.0964000229724,True,False
21,3,267.0209394999547,cross,"(480.0, -270.0)",0,5513.4986999910325,1616.7178999749012,True,False
21,3,267.0364307999844,cross,"(480.0, -270.0)",0,5528.990000020713,1632.2092000045814,True,False
21,3,267.05440149997594,cross,"(480.0, -270.0)",0,5546.960700012278,1650.1798999961466,True,False
21,3,267.070816499996,cross,"(480.0, -270.0)",0,5563.3757000323385,1666.5949000162072,True,False
21,3,267.08782919996884,cross,"(480.0, -270.0)",0,5580.388400005177,1683.6075999890454,True,False
21,3,267.1040213999804,cross,"(480.0, -270.0)",0,5596.58060001675,1699.7998000006191,True,False
21,3,267.12105449999217,cross,"(480.0, -270.0)",0,5613.613700028509,1716.8329000123776,True,False
21,3,267.1372747999849,cross,"(480.0, -270.0)",0,5629.834000021219,1733.053200005088,True,False
21,3,267.1546778999618,cross,"(480.0, -270.0)",0,5647.237099998165,1750.4562999820337,True,False
21,3,267.1707357999985,cross,"(480.0, -270.0)",0,5663.29500003485,1766.5142000187188,True,False
21,3,267.1879048999981,cross,"(480.0, -270.0)",0,5680.464100034442,1783.6833000183105,True,False
21,3,271.7540777999675,t,"(480.0, 270.0)",268.1411000085063,10246.63700000383,6349.856199987698,False,True
21,4,275.0009929999942,star,"(-480.0, 270.0)",266.5705000399612,13493.552200030535,3246.915200026706,False,True
