trial_num,selection_num,timestamp,shape,position,fixation_duration_ms,rt_from_trial_start_ms,rt_from_previous_selection_ms,queued_selection,was_executed
2,1,20.579994299972896,circle,"(-480.0, -270.0)",332.904500013683,332.96560001326725,332.96560001326725,False,True
2,2,21.09518989996286,circle,"(-480.0, -270.0)",512.1327000088058,848.1612000032328,515.1955999899656,True,False
2,2,21.118856899964157,circle,"(-480.0, -270.0)",0,871.8282000045292,538.862599991262,True,False
2,2,21.130575699964538,circle,"(-480.0, -270.0)",0,883.5470000049099,550.5813999916427,True,False
2,2,21.14749629999278,circle,"(-480.0, -270.0)",0,900.4676000331528,567.5020000198856,True,False
2,2,21.162973699974827,circle,"(-480.0, -270.0)",0,915.9450000151992,582.9794000019319,True,False
2,2,21.180382599995937,circle,"(-480.0, -270.0)",0,933.3539000363089,600.3883000230417,True,False
2,2,21.196086399955675,circle,"(-480.0, -270.0)",0,949.0576999960467,616.0920999827795,True,False
2,2,21.213397399988025,circle,"(-480.0, -270.0)",0,966.3687000283971,633.4031000151299,True,False
2,2,21.227268299960997,circle,"(-480.0, -270.0)",0,980.2396000013687,647.2739999881014,True,False
2,2,21.243986399960704,circle,"(-480.0, -270.0)",0,996.9577000010759,663.9920999878086,True,False
2,2,21.26043739996385,circle,"(-480.0, -270.0)",0,1013.40870000422,680.4430999909528,True,False
2,2,21.277442199992947,circle,"(-480.0, -270.0)",0,1030.413500033319,697.4479000200517,True,False
2,2,21.29793509998126,circle,"(-480.0, -270.0)",0,1050.9064000216313,717.940800008364,True,False
2,2,21.313407699984964,circle,"(-480.0, -270.0)",0,1066.3790000253357,733.4134000120685,True,False
2,2,21.330932899960317,circle,"(-480.0, -270.0)",0,1083.9042000006884,750.9385999874212,True,False
2,2,21.346768099989276,circle,"(-480.0, -270.0)",0,1099.739400029648,766.7738000163808,True,False
2,2,21.36407519999193,circle,"(-480.0, -270.0)",0,1117.046500032302,784.0809000190347,True,False
2,2,21.38085749995662,circle,"(-480.0, -270.0)",0,1133.8287999969907,800.8631999837235,True,False
2,2,21.397022399993148,circle,"(-480.0, -270.0)",0,1149.9937000335194,817.0281000202522,True,False
2,2,21.412390199955553,circle,"(-480.0, -270.0)",0,1165.3614999959245,832.3958999826573,True,False
2,2,21.431945299962536,circle,"(-480.0, -270.0)",0,1184.9166000029072,851.95099998964,True,False
2,2,21.44408939999994,circle,"(-480.0, -270.0)",0,1197.0607000403106,864.0951000270434,True,False
2,2,21.46101029997226,circle,"(-480.0, -270.0)",0,1213.9816000126302,881.015999999363,True,False
2,2,21.477394799992908,circle,"(-480.0, -270.0)",0,1230.3661000332795,897.4005000200123,True,False
2,2,21.494819599960465,circle,"(-480.0, -270.0)",0,1247.7909000008367,914.8252999875695,True,False
2,2,21.514640799956396,circle,"(-480.0, -270.0)",0,1267.612099996768,934.6464999835007,True,False
2,2,21.53021949995309,circle,"(-480.0, -270.0)",0,1283.1907999934629,950.2251999801956,True,False
2,2,21.54777889995603,circle,"(-480.0, -270.0)",0,1300.7501999964006,967.7845999831334,True,False
2,2,21.563703099964187,circle,"(-480.0, -270.0)",0,1316.6744000045583,983.708799991291,True,False
2,2,21.58070269995369,circle,"(-480.0, -270.0)",0,1333.673999994062,1000.7083999807946,True,False
2,2,21.595930899959058,circle,"(-480.0, -270.0)",0,1348.9021999994293,1015.936599986162,True,False
2,2,21.61323849996552,circle,"(-480.0, -270.0)",0,1366.2098000058904,1033.2441999926232,True,False
2,2,21.627242799964733,circle,"(-480.0, -270.0)",0,1380.2141000051051,1047.248499991838,True,False
2,2,21.643776699958835,circle,"(-480.0, -270.0)",0,1396.7479999992065,1063.7823999859393,True,False
2,2,21.66040079999948,circle,"(-480.0, -270.0)",0,1413.372100039851,1080.4065000265837,True,False
2,2,21.677023599972017,circle,"(-480.0, -270.0)",0,1429.9949000123888,1097.0292999991216,True,False
2,2,21.69397799996659,circle,"(-480.0, -270.0)",0,1446.9493000069633,1113.983699993696,True,False
2,2,21.714407699997537,circle,"(-480.0, -270.0)",0,1467.3790000379086,1134.4134000246413,True,False
2,2,21.730541199969593,circle,"(-480.0, -270.0)",0,1483.5125000099652,1150.546899996698,True,False
2,2,21.747884799959138,circle,"(-480.0, -270.0)",0,1500.8560999995098,1167.8904999862425,True,False
2,2,21.76336129999254,circle,"(-480.0, -270.0)",0,1516.3326000329107,1183.3670000196435,True,False
2,2,21.781207599968184,circle,"(-480.0, -270.0)",0,1534.1789000085555,1201.2132999952883,True,False
2,2,21.797106199956033,circle,"(-480.0, -270.0)",0,1550.077499996405,1217.1118999831378,True,False
2,2,21.81380820000777,circle,"(-480.0, -270.0)",0,1566.779500048142,1233.8139000348747,True,False
2,2,21.829053499968722,circle,"(-480.0, -270.0)",0,1582.0248000090942,1249.059199995827,True,False
2,2,21.84411209996324,circle,"(-480.0, -270.0)",0,1597.083400003612,1264.1177999903448,True,False
2,2,21.860396399977617,circle,"(-480.0, -270.0)",0,1613.3677000179887,1280.4021000047214,True,False
2,2,21.877340899955016,circle,"(-480.0, -270.0)",0,1630.3121999953873,1297.34659998212,True,False
2,2,21.878900899959262,star,"(-480.0, 270.0)",346.68319998309016,1631.8721999996342,1298.906599986367,True,False
2,2,21.895219400001224,star,"(-480.0, 270.0)",0,1648.1907000415958,1315.2251000283286,True,False
2,2,21.91065019997768,star,"(-480.0, 270.0)",0,1663.6215000180528,1330.6559000047855,True,False
2,2,21.930781100003514,star,"(-480.0, 270.0)",0,1683.7524000438862,1350.786800030619,True,False
2,2,21.946547899977304,star,"(-480.0, 270.0)",0,1699.5192000176758,1366.5536000044085,True,False
2,2,21.963900699978694,star,"(-480.0, 270.0)",0,1716.872000019066,1383.9064000057988,True,False
2,2,21.98026799998479,star,"(-480.0, 270.0)",0,1733.2393000251614,1400.273700011894,True,False
2,2,21.99716470000567,star,"(-480.0, 270.0)",0,1750.1360000460409,1417.1704000327736,True,False
2,2,22.012455399963073,star,"(-480.0, 270.0)",0,1765.4267000034451,1432.461099990178,True,False
2,2,22.02942350000376,star,"(-480.0, 270.0)",0,1782.3948000441305,1449.4292000308633,True,False
2,2,22.043633399996907,star,"(-480.0, 270.0)",0,1796.6047000372782,1463.639100024011,True,False
2,2,22.060193199955393,star,"(-480.0, 270.0)",0,1813.1644999957643,1480.198899982497,True,False
2,2,22.076850799960084,star,"(-480.0, 270.0)",0,1829.822100000456,1496.8564999871887,True,False
2,2,22.09358649997739,star,"(-480.0, 270.0)",0,1846.557800017763,1513.5922000044957,True,False
2,2,22.11065329995472,star,"(-480.0, 270.0)",0,1863.6245999950916,1530.6589999818243,True,False
2,2,22.12790879997192,star,"(-480.0, 270.0)",0,1880.8801000122912,1547.914499999024,True,False
2,2,22.147677099972498,star,"(-480.0, 270.0)",0,1900.6484000128694,1567.6827999996021,True,False
2,2,22.163230300007854,star,"(-480.0, 270.0)",0,1916.2016000482254,1583.2360000349581,True,False
2,2,22.181249299959745,star,"(-480.0, 270.0)",0,1934.220600000117,1601.2549999868497,True,False
2,2,22.19691870000679,star,"(-480.0, 270.0)",0,1949.8900000471622,1616.924400033895,True,False
2,2,22.214816799969412,star,"(-480.0, 270.0)",0,1967.788100009784,1634.8224999965169,True,False
2,2,22.22943549999036,star,"(-480.0, 270.0)",0,1982.4068000307307,1649.4412000174634,True,False
2,2,22.246603699983098,star,"(-480.0, 270.0)",0,1999.5750000234693,1666.609400010202,True,False
2,2,22.260279599984642,star,"(-480.0, 270.0)",0,2013.2509000250138,1680.2853000117466,True,False
2,2,22.276842699968256,star,"(-480.0, 270.0)",0,2029.8140000086278,1696.8483999953605,True,False
2,2,22.29337809997378,star,"(-480.0, 270.0)",0,2046.349400014151,1713.3838000008836,True,False
2,2,22.310202499968,star,"(-480.0, 270.0)",0,2063.1738000083715,1730.2081999951042,True,False
2,2,22.32753449998563,star,"(-480.0, 270.0)",0,2080.5058000260033,1747.540200012736,True,False
2,2,22.34754869999597,star,"(-480.0, 270.0)",0,2100.52000003634,1767.554400023073,True,False
2,2,22.381083499989472,star,"(-480.0, 270.0)",484.4646999845281,2134.054800029844,1801.0892000165768,False,True
2,3,22.893836800009012,star,"(-480.0, 270.0)",509.7278000321239,2646.808100049384,512.7533000195399,True,False
2,3,22.91333670000313,star,"(-480.0, 270.0)",0,2666.3080000435,532.2532000136562,True,False
2,3,22.927235000010114,star,"(-480.0, 270.0)",0,2680.206300050486,546.1515000206418,True,False
2,3,22.944286599988118,star,"(-480.0, 270.0)",0,2697.2579000284895,563.2030999986455,True,False
2,3,22.96554839995224,star,"(-480.0, 270.0)",0,2718.519699992612,584.464899962768,True,False
2,3,22.98070709995227,star,"(-480.0, 270.0)",0,2733.678399992641,599.623599962797,True,False
2,3,22.997447000001557,star,"(-480.0, 270.0)",0,2750.418300041929,616.3635000120848,True,False
2,3,23.012562299962156,star,"(-480.0, 270.0)",0,2765.5336000025272,631.4787999726832,True,False
2,3,23.030686099955346,star,"(-480.0, 270.0)",0,2783.657399995718,649.6025999658741,True,False
2,3,23.045555699965917,star,"(-480.0, 270.0)",0,2798.5270000062883,664.4721999764442,True,False
2,3,23.06255279999459,star,"(-480.0, 270.0)",0,2815.5241000349633,681.4693000051193,True,False
2,3,23.076506999961566,star,"(-480.0, 270.0)",0,2829.478300001938,695.4234999720939,True,False
2,3,23.09320869995281,star,"(-480.0, 270.0)",0,2846.1799999931827,712.1251999633387,True,False
2,3,23.10984579997603,star,"(-480.0, 270.0)",0,2862.8171000164,728.7622999865562,True,False
2,3,23.12656279996736,star,"(-480.0, 270.0)",0,2879.5341000077315,745.4792999778874,True,False
2,3,23.143119199958164,star,"(-480.0, 270.0)",0,2896.090499998536,762.0356999686919,True,False
2,3,23.160491499991622,star,"(-480.0, 270.0)",0,2913.4628000319935,779.4080000021495,True,False
2,3,23.179595099994913,star,"(-480.0, 270.0)",0,2932.5664000352845,798.5116000054404,True,False
2,3,23.1957645000075,star,"(-480.0, 270.0)",0,2948.7358000478707,814.6810000180267,True,False
2,3,23.213591699954122,star,"(-480.0, 270.0)",0,2966.562999994494,832.50819996465,True,False
2,3,23.22903019998921,star,"(-480.0, 270.0)",0,2982.0015000295825,847.9466999997385,True,False
2,3,23.247739499958698,star,"(-480.0, 270.0)",0,3000.7107999990694,866.6559999692254,True,False
2,3,23.26248489995487,star,"(-480.0, 270.0)",0,3015.456199995242,881.401399965398,True,False
2,3,23.279217700008303,star,"(-480.0, 270.0)",0,3032.1890000486746,898.1342000188306,True,False
2,3,23.280781899986323,circle,"(-480.0, -270.0)",333.44539999961853,3033.7532000266947,899.6983999968506,True,False
2,3,23.294855099986307,circle,"(-480.0, -270.0)",0,3047.826400026679,913.771599996835,True,False
2,3,23.309760899981484,circle,"(-480.0, -270.0)",0,3062.7322000218555,928.6773999920115,True,False
2,3,23.32647829997586,circle,"(-480.0, -270.0)",0,3079.4496000162326,945.3947999863885,True,False
2,3,23.342940800008364,circle,"(-480.0, -270.0)",0,3095.9121000487357,961.8573000188917,True,False
2,3,23.36026559997117,circle,"(-480.0, -270.0)",0,3113.236900011543,979.1820999816991,True,False
2,3,23.37964759999886,circle,"(-480.0, -270.0)",0,3132.6189000392333,998.5641000093892,True,False
2,3,23.396096399985254,circle,"(-480.0, -270.0)",0,3149.0677000256255,1015.0128999957815,True,False
2,3,23.413311199983582,circle,"(-480.0, -270.0)",0,3166.2825000239536,1032.2276999941096,True,False
2,3,23.42938889999641,circle,"(-480.0, -270.0)",0,3182.3602000367828,1048.3054000069387,True,False
2,3,23.447140700009186,circle,"(-480.0, -270.0)",0,3200.1120000495575,1066.0572000197135,True,False
2,3,23.46272539999336,circle,"(-480.0, -270.0)",0,3215.6967000337318,1081.6419000038877,True,False
2,3,23.479760699963663,circle,"(-480.0, -270.0)",0,3232.7320000040345,1098.6771999741904,True,False
2,3,23.49544629995944,circle,"(-480.0, -270.0)",0,3248.4175999998115,1114.3627999699675,True,False
2,3,23.510087199974805,circle,"(-480.0, -270.0)",0,3263.058500015177,1129.0036999853328,True,False
2,3,23.526456799998414,circle,"(-480.0, -270.0)",0,3279.4281000387855,1145.3733000089414,True,False
2,3,23.54340239998419,circle,"(-480.0, -270.0)",0,3296.37370002456,1162.318899994716,True,False
2,3,23.55986469995696,circle,"(-480.0, -270.0)",0,3312.8359999973327,1178.7811999674886,True,False
2,3,23.576726700004656,circle,"(-480.0, -270.0)",0,3329.6980000450276,1195.6432000151835,True,False
2,3,23.59697720000986,circle,"(-480.0, -270.0)",0,3349.948500050232,1215.8937000203878,True,False
2,3,23.612445899983868,circle,"(-480.0, -270.0)",0,3365.4172000242397,1231.3623999943957,True,False
2,3,23.630527600005735,circle,"(-480.0, -270.0)",0,3383.4989000461064,1249.4441000162624,True,False
2,3,23.645954499952495,circle,"(-480.0, -270.0)",0,3398.925799992867,1264.8709999630228,True,False
2,3,23.66295169998193,circle,"(-480.0, -270.0)",0,3415.9230000223033,1281.8681999924593,True,False
2,3,23.678607499983627,circle,"(-480.0, -270.0)",0,3431.578800023999,1297.523999994155,True,False
2,3,23.695719000010286,circle,"(-480.0, -270.0)",0,3448.6903000506572,1314.6355000208132,True,False
2,3,23.709650699980557,circle,"(-480.0, -270.0)",0,3462.6220000209287,1328.5671999910846,True,False
2,3,23.726185599982273,circle,"(-480.0, -270.0)",0,3479.1569000226445,1345.1020999928005,True,False
2,3,23.743040299974382,circle,"(-480.0, -270.0)",0,3496.0116000147536,1361.9567999849096,True,False
2,3,23.759534899960272,circle,"(-480.0, -270.0)",0,3512.5062000006437,1378.4513999707997,True,False
2,3,23.777155499963555,circle,"(-480.0, -270.0)",0,3530.126800003927,1396.0719999740832,True,False
2,3,23.797288800007664,circle,"(-480.0, -270.0)",0,3550.2601000480354,1416.2053000181913,True,False
2,3,23.81285009998828,circle,"(-480.0, -270.0)",0,3565.8214000286534,1431.7665999988094,True,False
2,3,23.83129119995283,circle,"(-480.0, -270.0)",0,3584.2624999932013,1450.2076999633573,True,False
2,3,23.846995699976105,circle,"(-480.0, -270.0)",0,3599.967000016477,1465.912199986633,True,False
2,3,23.86360549996607,circle,"(-480.0, -270.0)",0,3616.5768000064418,1482.5219999765977,True,False
2,3,23.879337499965914,circle,"(-480.0, -270.0)",0,3632.3088000062853,1498.2539999764413,True,False
2,3,23.896168000006583,circle,"(-480.0, -270.0)",0,3649.1393000469543,1515.0845000171103,True,False
2,3,23.91149139998015,circle,"(-480.0, -270.0)",0,3664.462700020522,1530.4078999906778,True,False
2,3,23.926292999996804,circle,"(-480.0, -270.0)",0,3679.2643000371754,1545.2095000073314,True,False
2,3,23.94298249995336,circle,"(-480.0, -270.0)",0,3695.953799993731,1561.898999963887,True,False
2,3,23.959641699970234,circle,"(-480.0, -270.0)",0,3712.613000010606,1578.5581999807619,True,False
2,3,23.9764056999702,circle,"(-480.0, -270.0)",0,3729.3770000105724,1595.3221999807283,True,False
2,3,23.99409499997273,circle,"(-480.0, -270.0)",0,3747.0663000131026,1613.0114999832585,True,False
2,3,24.01362019998487,circle,"(-480.0, -270.0)",0,3766.5915000252426,1632.5366999953985,True,False
2,3,24.029490599990822,circle,"(-480.0, -270.0)",0,3782.461900031194,1648.40710000135,True,False
2,3,24.04713229998015,circle,"(-480.0, -270.0)",0,3800.1036000205204,1666.0487999906763,True,False
2,3,24.062758399988525,circle,"(-480.0, -270.0)",0,3815.7297000288963,1681.6748999990523,True,False
2,3,24.07923859998118,circle,"(-480.0, -270.0)",0,3832.209900021553,1698.155099991709,True,False
2,3,24.095253199979197,circle,"(-480.0, -270.0)",0,3848.224500019569,1714.169699989725,True,False
2,3,24.11233460000949,circle,"(-480.0, -270.0)",0,3865.3059000498615,1731.2511000200175,True,False
2,3,24.12663989997236,circle,"(-480.0, -270.0)",0,3879.6112000127323,1745.5563999828883,True,False
2,3,24.143015299981926,circle,"(-480.0, -270.0)",0,3895.9866000222974,1761.9317999924533,True,False
2,3,24.159726199985016,circle,"(-480.0, -270.0)",0,3912.697500025388,1778.6426999955438,True,False
2,3,24.176424000004772,circle,"(-480.0, -270.0)",0,3929.395300045144,1795.3405000152998,True,False
2,3,24.17834079999011,circle,"(-480.0, -270.0)",882.0326999993995,3931.312100030482,1797.2573000006378,False,True
2,4,26.480689899995923,circle,"(-480.0, -270.0)",951.6126000089571,6233.661200036295,2302.349100005813,False,True
3,1,30.142725499987137,cross,"(480.0, -270.0)",331.7988000344485,331.8521000328474,331.8521000328474,False,True
3,2,30.658692399971187,cross,"(480.0, -270.0)",513.0972999613732,847.8190000168979,515.9668999840505,True,False
3,2,30.681438100000378,cross,"(480.0, -270.0)",0,870.5647000460885,538.7126000132412,True,False
3,2,30.694951199984644,cross,"(480.0, -270.0)",0,884.0778000303544,552.225699997507,True,False
3,2,30.711418999999296,cross,"(480.0, -270.0)",0,900.5456000450067,568.6935000121593,True,False
3,2,30.726711599971168,cross,"(480.0, -270.0)",0,915.8382000168785,583.9860999840312,True,False
3,2,30.74477950000437,cross,"(480.0, -270.0)",0,933.9061000500806,602.0540000172332,True,False
3,2,30.75961169996299,cross,"(480.0, -270.0)",0,948.7383000086993,616.8861999758519,True,False
3,2,30.776823299995158,cross,"(480.0, -270.0)",0,965.9499000408687,634.0978000080213,True,False
3,2,30.790734399983194,cross,"(480.0, -270.0)",0,979.8610000289045,648.0088999960572,True,False
3,2,30.80740859999787,cross,"(480.0, -270.0)",0,996.5352000435814,664.683100010734,True,False
3,2,30.823972299986053,cross,"(480.0, -270.0)",0,1013.0989000317641,681.2467999989167,True,False
3,2,30.8408608000027,cross,"(480.0, -270.0)",0,1029.9874000484124,698.135300015565,True,False
3,2,30.860707799962256,cross,"(480.0, -270.0)",0,1049.834400007967,717.9822999751195,True,False
3,2,30.876707699964754,cross,"(480.0, -270.0)",0,1065.834300010465,733.9821999776177,True,False
3,2,30.894858599989675,cross,"(480.0, -270.0)",0,1083.9852000353858,752.1331000025384,True,False
3,2,30.910600500006694,cross,"(480.0, -270.0)",0,1099.7271000524051,767.8750000195578,True,False
3,2,30.928128100000322,cross,"(480.0, -270.0)",0,1117.2547000460327,785.4026000131853,True,False
3,2,30.943703199969605,cross,"(480.0, -270.0)",0,1132.8298000153154,800.977699982468,True,False
3,2,30.960461599985138,cross,"(480.0, -270.0)",0,1149.5882000308484,817.736099998001,True,False
3,2,30.975966900005005,cross,"(480.0, -270.0)",0,1165.093500050716,833.2414000178687,True,False
3,2,30.99093339999672,cross,"(480.0, -270.0)",0,1180.060000042431,848.2079000095837,True,False
3,2,31.007358799979556,cross,"(480.0, -270.0)",0,1196.4854000252672,864.6332999924198,True,False
3,2,31.024757399980444,cross,"(480.0, -270.0)",0,1213.8840000261553,882.0318999933079,True,False
3,2,31.04068829998141,cross,"(480.0, -270.0)",0,1229.8149000271223,897.962799994275,True,False
3,2,31.057297299965285,cross,"(480.0, -270.0)",0,1246.4239000109956,914.5717999781482,True,False
3,2,31.077498800004832,cross,"(480.0, -270.0)",0,1266.6254000505432,934.7733000176959,True,False
3,2,31.079653199994937,t,"(480.0, 270.0)",333.0650000134483,1268.7798000406474,936.9277000078,True,False
3,2,31.095109199988656,t,"(480.0, 270.0)",0,1284.2358000343665,952.3837000015192,True,False
3,2,31.110359899990726,t,"(480.0, 270.0)",0,1299.486500036437,967.6344000035897,True,False
3,2,31.126343399984762,t,"(480.0, 270.0)",0,1315.4700000304729,983.6178999976255,True,False
3,2,31.14419739996083,t,"(480.0, 270.0)",0,1333.3240000065416,1001.4718999736942,True,False
3,2,31.159373499976937,t,"(480.0, 270.0)",0,1348.5001000226475,1016.6479999898002,True,False
3,2,31.17654409998795,t,"(480.0, 270.0)",0,1365.670700033661,1033.8186000008136,True,False
3,2,31.190558100002818,t,"(480.0, 270.0)",0,1379.6847000485286,1047.8326000156812,True,False
3,2,31.20717849995708,t,"(480.0, 270.0)",0,1396.3051000027917,1064.4529999699444,True,False
3,2,31.22385419998318,t,"(480.0, 270.0)",0,1412.9808000288904,1081.128699996043,True,False
3,2,31.24078819999704,t,"(480.0, 270.0)",0,1429.9148000427522,1098.0627000099048,True,False
3,2,31.257230299990624,t,"(480.0, 270.0)",0,1446.356900036335,1114.5048000034876,True,False
3,2,31.274084499978926,t,"(480.0, 270.0)",0,1463.2111000246368,1131.3589999917895,True,False
3,2,31.29428829997778,t,"(480.0, 270.0)",0,1483.4149000234902,1151.5627999906428,True,False
3,2,31.310919599956833,t,"(480.0, 270.0)",0,1500.0462000025436,1168.1940999696963,True,False
3,2,31.328506399993785,t,"(480.0, 270.0)",0,1517.6330000394955,1185.7809000066482,True,False
3,2,31.343304399983026,t,"(480.0, 270.0)",0,1532.431000028737,1200.5788999958895,True,False
3,2,31.360687599983066,t,"(480.0, 270.0)",0,1549.8142000287771,1217.9620999959297,True,False
3,2,31.376390399993397,t,"(480.0, 270.0)",0,1565.517000039108,1233.6649000062607,True,False
3,2,31.39324259996647,t,"(480.0, 270.0)",0,1582.369200012181,1250.5170999793336,True,False
3,2,31.406937299994752,t,"(480.0, 270.0)",0,1596.0639000404626,1264.2118000076152,True,False
3,2,31.42370809998829,t,"(480.0, 270.0)",0,1612.834700034,1280.9826000011526,True,False
3,2,31.440378099970985,t,"(480.0, 270.0)",0,1629.504700016696,1297.6525999838486,True,False
3,2,31.457240199961234,t,"(480.0, 270.0)",0,1646.3668000069447,1314.5146999740973,True,False
3,2,31.473982999974396,t,"(480.0, 270.0)",0,1663.1096000201069,1331.2574999872595,True,False
3,2,31.49135019996902,t,"(480.0, 270.0)",0,1680.4768000147305,1348.6246999818832,True,False
3,2,31.510852199979126,t,"(480.0, 270.0)",0,1699.9788000248373,1368.1266999919899,True,False
3,2,31.527179899974726,t,"(480.0, 270.0)",0,1716.306500020437,1384.4543999875896,True,False
3,2,31.54452409996884,t,"(480.0, 270.0)",0,1733.6507000145502,1401.7985999817029,True,False
3,2,31.560301399964374,t,"(480.0, 270.0)",0,1749.4280000100844,1417.575899977237,True,False
3,2,31.57803559995955,t,"(480.0, 270.0)",0,1767.1622000052594,1435.310099972412,True,False
3,2,31.59322159999283,t,"(480.0, 270.0)",0,1782.348200038541,1450.4961000056937,True,False
3,2,31.609850300010294,t,"(480.0, 270.0)",0,1798.9769000560045,1467.1248000231571,True,False
3,2,31.623903699975926,t,"(480.0, 270.0)",0,1813.0303000216372,1481.1781999887899,True,False
3,2,31.64052630000515,t,"(480.0, 270.0)",0,1829.65290005086,1497.8008000180125,True,False
3,2,31.6571769999573,t,"(480.0, 270.0)",0,1846.3036000030115,1514.4514999701641,True,False
3,2,31.67393930000253,t,"(480.0, 270.0)",0,1863.065900048241,1531.2138000153936,True,False
3,2,31.691237699997146,t,"(480.0, 270.0)",0,1880.3643000428565,1548.512200010009,True,False
3,2,31.710537099977955,t,"(480.0, 270.0)",0,1899.663700023666,1567.8115999908186,True,False
3,2,31.726396399957594,t,"(480.0, 270.0)",0,1915.5230000033043,1583.670899970457,True,False
3,2,31.74449650000315,t,"(480.0, 270.0)",0,1933.6231000488624,1601.771000016015,True,False
3,2,31.759694000007585,t,"(480.0, 270.0)",0,1948.8206000532955,1616.9685000204481,True,False
3,2,31.777251999999862,t,"(480.0, 270.0)",0,1966.378600045573,1634.5265000127256,True,False
3,2,31.792673899966758,t,"(480.0, 270.0)",0,1981.8005000124685,1649.9483999796212,True,False
3,2,31.809812899969984,t,"(480.0, 270.0)",0,1998.9395000156946,1667.0873999828473,True,False
3,2,31.823770199960563,t,"(480.0, 270.0)",0,2012.8968000062741,1681.0446999734268,True,False
3,2,31.840416899998672,t,"(480.0, 270.0)",0,2029.543500044383,1697.6914000115357,True,False
3,2,31.85684389999369,t,"(480.0, 270.0)",0,2045.9705000394024,1714.118400006555,True,False
3,2,31.873822499997914,t,"(480.0, 270.0)",0,2062.9491000436246,1731.0970000107773,True,False
3,2,31.89048359997105,t,"(480.0, 270.0)",0,2079.6102000167593,1747.758099983912,True,False
3,2,31.908606499957386,t,"(480.0, 270.0)",0,2097.733100003097,1765.8809999702498,True,False
3,2,31.910648399963975,t,"(480.0, 270.0)",813.6675999849103,2099.7750000096858,1767.9228999768384,False,True
3,3,32.41079130000435,t,"(480.0, 270.0)",479.5115000451915,2599.917900050059,500.1429000403732,True,False
3,3,32.4271009999793,t,"(480.0, 270.0)",0,2616.227600025013,516.4526000153273,True,False
3,3,32.442937599960715,t,"(480.0, 270.0)",0,2632.0642000064254,532.2891999967396,True,False
3,3,32.45654260000447,t,"(480.0, 270.0)",0,2645.669200050179,545.8942000404932,True,False
3,3,32.47359559999313,t,"(480.0, 270.0)",0,2662.722200038843,562.9472000291571,True,False
3,3,32.490091099985875,t,"(480.0, 270.0)",0,2679.217700031586,579.4427000219002,True,False
3,3,32.506799099966884,t,"(480.0, 270.0)",0,2695.9257000125945,596.1507000029087,True,False
3,3,32.5237551999744,t,"(480.0, 270.0)",0,2712.8818000201136,613.1068000104278,True,False
3,3,32.54425139998784,t,"(480.0, 270.0)",0,2733.3780000335537,633.6030000238679,True,False
3,3,32.55996719998075,t,"(480.0, 270.0)",0,2749.0938000264578,649.318800016772,True,False
3,3,32.57780410000123,t,"(480.0, 270.0)",0,2766.9307000469416,667.1557000372559,True,False
3,3,32.592777999991085,t,"(480.0, 270.0)",0,2781.904600036796,682.1296000271104,True,False
3,3,32.61053710000124,t,"(480.0, 270.0)",0,2799.663700046949,699.8887000372633,True,False
3,3,32.625288899987936,t,"(480.0, 270.0)",0,2814.415500033647,714.6405000239611,True,False
3,3,32.6429079999798,t,"(480.0, 270.0)",0,2832.0346000255086,732.2596000158228,True,False
3,3,32.6567170000053,t,"(480.0, 270.0)",0,2845.843600051012,746.0686000413261,True,False
3,3,32.673457199998666,t,"(480.0, 270.0)",0,2862.5838000443764,762.8088000346906,True,False
3,3,32.69013070000801,t,"(480.0, 270.0)",0,2879.257300053723,779.4823000440374,True,False
3,3,32.70664270000998,t,"(480.0, 270.0)",0,2895.76930005569,795.9943000460044,True,False
3,3,32.723382299998775,t,"(480.0, 270.0)",0,2912.508900044486,812.7339000348002,True,False
3,3,32.74037259997567,t,"(480.0, 270.0)",0,2929.4992000213824,829.7242000116967,True,False
3,3,32.76073959999485,t,"(480.0, 270.0)",0,2949.86620004056,850.0912000308745,True,False
3,3,32.778303499973845,t,"(480.0, 270.0)",0,2967.4301000195555,867.6551000098698,True,False
3,3,32.79382399999304,t,"(480.0, 270.0)",0,2982.9506000387482,883.1756000290625,True,False
3,3,32.80978199996753,t,"(480.0, 270.0)",0,2998.9086000132374,899.1336000035517,True,False
3,3,32.82693549996475,t,"(480.0, 270.0)",0,3016.0621000104584,916.2871000007726,True,False
3,3,32.841833299957216,t,"(480.0, 270.0)",0,3030.9599000029266,931.1848999932408,True,False
3,3,32.859328099992126,t,"(480.0, 270.0)",0,3048.454700037837,948.6797000281513,True,False
3,3,32.87335109995911,t,"(480.0, 270.0)",0,3062.47770000482,962.702699995134,True,False
3,3,32.88986359996488,t,"(480.0, 270.0)",0,3078.990200010594,979.2152000009082,True,False
3,3,32.90663699997822,t,"(480.0, 270.0)",0,3095.763600023929,995.9886000142433,True,False
3,3,32.923195599985775,t,"(480.0, 270.0)",0,3112.3222000314854,1012.5472000217997,True,False
3,3,32.940082899993286,t,"(480.0, 270.0)",0,3129.2095000389963,1029.4345000293106,True,False
3,3,32.957368100003805,t,"(480.0, 270.0)",0,3146.494700049516,1046.71970003983,True,False
3,3,32.97689559997525,t,"(480.0, 270.0)",0,3166.0222000209615,1066.2472000112757,True,False
3,3,32.993187799991574,t,"(480.0, 270.0)",0,3182.314400037285,1082.5394000275992,True,False
3,3,33.01085359998979,t,"(480.0, 270.0)",0,3199.9802000354975,1100.2052000258118,True,False
3,3,33.0263372999616,t,"(480.0, 270.0)",0,3215.4639000073075,1115.6888999976218,True,False
3,3,33.04368409997551,t,"(480.0, 270.0)",0,3232.8107000212185,1133.0357000115328,True,False
3,3,33.05905260000145,t,"(480.0, 270.0)",0,3248.1792000471614,1148.4042000374757,True,False
3,3,33.0764751000097,t,"(480.0, 270.0)",0,3265.601700055413,1165.8267000457272,True,False
3,3,33.09008920000633,t,"(480.0, 270.0)",0,3279.215800052043,1179.4408000423573,True,False
3,3,33.10669729998335,t,"(480.0, 270.0)",0,3295.823900029063,1196.0489000193775,True,False
3,3,33.123218399996404,t,"(480.0, 270.0)",0,3312.3450000421144,1212.5700000324287,True,False
3,3,33.13997219997691,t,"(480.0, 270.0)",0,3329.0988000226207,1229.323800012935,True,False
3,3,33.160273399960715,t,"(480.0, 270.0)",0,3349.400000006426,1249.6249999967404,True,False
3,3,33.17603499995312,t,"(480.0, 270.0)",0,3365.161599998828,1265.3865999891423,True,False
3,3,33.193542499968316,t,"(480.0, 270.0)",0,3382.669100014027,1282.8941000043415,True,False
3,3,33.209072300000116,t,"(480.0, 270.0)",0,3398.198900045827,1298.4239000361413,True,False
3,3,33.22682799998438,t,"(480.0, 270.0)",0,3415.9546000300907,1316.179600020405,True,False
3,3,33.243149299989454,t,"(480.0, 270.0)",0,3432.2759000351653,1332.5009000254795,True,False
3,3,33.259650599968154,t,"(480.0, 270.0)",0,3448.777200013865,1349.002200004179,True,False
3,3,33.275031099969056,t,"(480.0, 270.0)",0,3464.1577000147663,1364.3827000050806,True,False
3,3,33.289785699977074,t,"(480.0, 270.0)",0,3478.9123000227846,1379.1373000130989,True,False
3,3,33.306581899989396,t,"(480.0, 270.0)",0,3495.708500035107,1395.9335000254214,True,False
3,3,33.32320379995508,t,"(480.0, 270.0)",0,3512.330400000792,1412.5553999911062,True,False
3,3,33.339961599966045,t,"(480.0, 270.0)",0,3529.0882000117563,1429.3132000020705,True,False
3,3,33.36182059999555,t,"(480.0, 270.0)",0,3550.9472000412643,1451.1722000315785,True,False
3,3,33.3746431999607,t,"(480.0, 270.0)",0,3563.769800006412,1463.9947999967262,True,False
3,3,33.39396419998957,t,"(480.0, 270.0)",0,3583.0908000352792,1483.3158000255935,True,False
3,3,33.40924489998724,t,"(480.0, 270.0)",0,3598.371500032954,1498.5965000232682,True,False
3,3,33.42733420000877,t,"(480.0, 270.0)",0,3616.460800054483,1516.6858000447974,True,False
3,3,33.44280939997407,t,"(480.0, 270.0)",0,3631.9360000197776,1532.1610000100918,True,False
3,3,33.460337099968456,t,"(480.0, 270.0)",0,3649.4637000141665,1549.6887000044808,True,False
3,3,33.4756924000103,t,"(480.0, 270.0)",0,3664.8190000560135,1565.0440000463277,True,False
3,3,33.492327699961606,t,"(480.0, 270.0)",0,3681.454300007317,1581.6792999976315,True,False
3,3,33.50648049998563,t,"(480.0, 270.0)",0,3695.6071000313386,1595.8321000216529,True,False
3,3,33.523132500005886,t,"(480.0, 270.0)",0,3712.2591000515968,1612.484100041911,True,False
3,3,33.53976509999484,t,"(480.0, 270.0)",0,3728.891700040549,1629.1167000308633,True,False
3,3,33.55672059999779,t,"(480.0, 270.0)",0,3745.8472000434995,1646.0722000338137,True,False
3,3,33.57679929997539,t,"(480.0, 270.0)",0,3765.9259000211023,1666.1509000114165,True,False
3,3,33.59258090000367,t,"(480.0, 270.0)",0,3781.7075000493787,1681.932500039693,True,False
3,3,33.61098229995696,t,"(480.0, 270.0)",0,3800.1089000026695,1700.3338999929838,True,False
3,3,33.626179999962915,t,"(480.0, 270.0)",0,3815.3066000086255,1715.5315999989398,True,False
3,3,33.64333729998907,t,"(480.0, 270.0)",0,3832.4639000347815,1732.6889000250958,True,False
3,3,33.65988719998859,t,"(480.0, 270.0)",0,3849.0138000342995,1749.2388000246137,True,False
3,3,33.67653399996925,t,"(480.0, 270.0)",0,3865.6606000149623,1765.8856000052765,True,False
3,3,33.69203269999707,t,"(480.0, 270.0)",0,3881.159300042782,1781.3843000330962,True,False
3,3,33.706441599992104,t,"(480.0, 270.0)",0,3895.5682000378147,1795.793200028129,True,False
3,3,34.21055620000698,t,"(480.0, 270.0)",1781.969300005585,4399.6828000526875,2299.9078000430018,False,True
3,4,36.43871749995742,star,"(-480.0, 270.0)",330.1430999999866,6627.844100003131,2228.161299950443,False,True
4,1,40.1241800999851,t,"(480.0, 270.0)",331.57400001073256,331.6484999959357,331.6484999959357,False,True
4,2,40.64250749995699,t,"(480.0, 270.0)",514.5440999767743,849.9758999678306,518.3273999718949,True,False
4,2,40.659400999953505,t,"(480.0, 270.0)",0,866.8693999643438,535.220899968408,True,False
4,2,40.675386199960485,t,"(480.0, 270.0)",0,882.8545999713242,551.2060999753885,True,False
4,2,40.689919299969915,t,"(480.0, 270.0)",0,897.3876999807544,565.7391999848187,True,False
4,2,40.70748739998089,t,"(480.0, 270.0)",0,914.9557999917306,583.3072999957949,True,False
4,2,40.723621299955994,t,"(480.0, 270.0)",0,931.089699966833,599.4411999708973,True,False
4,2,40.740405299991835,t,"(480.0, 270.0)",0,947.873700002674,616.2252000067383,True,False
4,2,40.75597289996222,t,"(480.0, 270.0)",0,963.4412999730557,631.79279997712,True,False
4,2,40.771022800006904,t,"(480.0, 270.0)",0,978.4912000177428,646.8427000218071,True,False
4,2,40.789158699975815,t,"(480.0, 270.0)",0,996.6270999866538,664.9785999907181,True,False
4,2,40.80416659999173,t,"(480.0, 270.0)",0,1011.6350000025705,679.9865000066347,True,False
4,2,40.82074499997543,t,"(480.0, 270.0)",0,1028.2133999862708,696.5648999903351,True,False
4,2,40.83825589995831,t,"(480.0, 270.0)",0,1045.7242999691516,714.0757999732159,True,False
4,2,40.85798309999518,t,"(480.0, 270.0)",0,1065.45150000602,733.8030000100844,True,False
4,2,40.87336430000141,t,"(480.0, 270.0)",0,1080.8327000122517,749.184200016316,True,False
4,2,40.891030099999625,t,"(480.0, 270.0)",0,1098.4985000104643,766.8500000145286,True,False
4,2,40.90679439995438,t,"(480.0, 270.0)",0,1114.2627999652177,782.614299969282,True,False
4,2,40.92469279997749,t,"(480.0, 270.0)",0,1132.1611999883316,800.5126999923959,True,False
4,2,40.93956739996793,t,"(480.0, 270.0)",0,1147.0357999787666,815.3872999828309,True,False
4,2,40.95654409995768,t,"(480.0, 270.0)",0,1164.0124999685213,832.3639999725856,True,False
4,2,40.971150400000624,t,"(480.0, 270.0)",0,1178.6188000114635,846.9703000155278,True,False
4,2,40.989039599953685,t,"(480.0, 270.0)",0,1196.507999964524,864.8594999685884,True,False
4,2,41.00401360000251,t,"(480.0, 270.0)",0,1211.4820000133477,879.833500017412,True,False
4,2,41.02068539999891,t,"(480.0, 270.0)",0,1228.1538000097498,896.5053000138141,True,False
4,2,41.04075419995934,t,"(480.0, 270.0)",0,1248.2225999701768,916.5740999742411,True,False
4,2,41.056761499959975,t,"(480.0, 270.0)",0,1264.2298999708146,932.5813999748789,True,False
4,2,41.07462009997107,t,"(480.0, 270.0)",0,1282.08849998191,950.4399999859743,True,False
4,2,41.090512199967634,t,"(480.0, 270.0)",0,1297.980599978473,966.3320999825373,True,False
4,2,41.10761259996798,t,"(480.0, 270.0)",0,1315.080999978818,983.4324999828823,True,False
4,2,41.12348519999068,t,"(480.0, 270.0)",0,1330.9536000015214,999.3051000055857,True,False
4,2,41.140422499971464,t,"(480.0, 270.0)",0,1347.8908999823034,1016.2423999863677,True,False
4,2,41.15633569995407,t,"(480.0, 270.0)",0,1363.8040999649093,1032.1555999689735,True,False
4,2,41.17083859996637,t,"(480.0, 270.0)",0,1378.3069999772124,1046.6584999812767,True,False
4,2,41.18777989997761,t,"(480.0, 270.0)",0,1395.2482999884523,1063.5997999925166,True,False
4,2,41.20510560000548,t,"(480.0, 270.0)",0,1412.5740000163205,1080.9255000203848,True,False
4,2,41.22066739998991,t,"(480.0, 270.0)",0,1428.1358000007458,1096.48730000481,True,False
4,2,41.239012699981686,t,"(480.0, 270.0)",0,1446.4810999925248,1114.8325999965891,True,False
4,2,41.25837249995675,t,"(480.0, 270.0)",0,1465.8408999675885,1134.1923999716528,True,False
4,2,41.272456699982285,t,"(480.0, 270.0)",0,1479.9250999931246,1148.276599997189,True,False
4,2,41.29102419997798,t,"(480.0, 270.0)",0,1498.492599988822,1166.8440999928862,True,False
4,2,41.307454099995084,t,"(480.0, 270.0)",0,1514.9225000059232,1183.2740000099875,True,False
4,2,41.32403540000087,t,"(480.0, 270.0)",0,1531.5038000117056,1199.85530001577,True,False
4,2,41.339960099954624,t,"(480.0, 270.0)",0,1547.4284999654628,1215.7799999695271,True,False
4,2,41.35627029999159,t,"(480.0, 270.0)",0,1563.7387000024319,1232.0902000064962,True,False
4,2,41.37070259999018,t,"(480.0, 270.0)",0,1578.1710000010207,1246.522500005085,True,False
4,2,41.387317699962296,t,"(480.0, 270.0)",0,1594.7860999731347,1263.137599977199,True,False
4,2,41.403752799960785,t,"(480.0, 270.0)",0,1611.2211999716237,1279.572699975688,True,False
4,2,41.42101980000734,t,"(480.0, 270.0)",0,1628.4882000181824,1296.8397000222467,True,False
4,2,41.43716629996197,t,"(480.0, 270.0)",0,1644.634699972812,1312.9861999768764,True,False
4,2,41.45422769995639,t,"(480.0, 270.0)",0,1661.69609996723,1330.0475999712944,True,False
4,2,41.47401419997914,t,"(480.0, 270.0)",0,1681.4825999899767,1349.834099994041,True,False
4,2,41.48946089996025,t,"(480.0, 270.0)",0,1696.9292999710888,1365.280799975153,True,False
4,2,41.50757539999904,t,"(480.0, 270.0)",0,1715.0438000098802,1383.3953000139445,True,False
4,2,41.52341460000025,t,"(480.0, 270.0)",0,1730.8830000110902,1399.2345000151545,True,False
4,2,41.540680399979465,t,"(480.0, 270.0)",0,1748.1487999903038,1416.500299994368,True,False
4,2,41.555799199966714,t,"(480.0, 270.0)",0,1763.267599977553,1431.6190999816172,True,False
4,2,41.57304960000329,t,"(480.0, 270.0)",0,1780.5180000141263,1448.8695000181906,True,False
4,2,41.58731189998798,t,"(480.0, 270.0)",0,1794.7802999988198,1463.1318000028841,True,False
4,2,41.60383340000408,t,"(480.0, 270.0)",0,1811.3018000149168,1479.653300018981,True,False
4,2,41.620704900007695,t,"(480.0, 270.0)",0,1828.173300018534,1496.5248000225984,True,False
4,2,41.63742149999598,t,"(480.0, 270.0)",0,1844.8899000068195,1513.2414000108838,True,False
4,2,41.65416719997302,t,"(480.0, 270.0)",0,1861.635599983856,1529.9870999879204,True,False
4,2,41.67444539995631,t,"(480.0, 270.0)",0,1881.9137999671511,1550.2652999712154,True,False
4,2,41.691443099989556,t,"(480.0, 270.0)",0,1898.9115000003949,1567.2630000044592,True,False
4,2,41.707275499997195,t,"(480.0, 270.0)",0,1914.743900008034,1583.0954000120983,True,False
4,2,41.723597200005315,t,"(480.0, 270.0)",0,1931.0656000161543,1599.4171000202186,True,False
4,2,41.7413217999856,t,"(480.0, 270.0)",0,1948.7901999964379,1617.1417000005022,True,False
4,2,41.7572331999545,t,"(480.0, 270.0)",0,1964.7015999653377,1633.053099969402,True,False
4,2,41.77387649996672,t,"(480.0, 270.0)",0,1981.3448999775574,1649.6963999816217,True,False
4,2,41.789456099970266,t,"(480.0, 270.0)",0,1996.9244999811053,1665.2759999851696,True,False
4,2,41.80407839996042,t,"(480.0, 270.0)",0,2011.5467999712564,1679.8982999753207,True,False
4,2,41.820530399971176,t,"(480.0, 270.0)",0,2027.998799982015,1696.3502999860793,True,False
4,2,41.83728360000532,t,"(480.0, 270.0)",0,2044.7520000161603,1713.1035000202246,True,False
4,2,41.85399159998633,t,"(480.0, 270.0)",0,2061.459999997169,1729.811500001233,True,False
4,2,41.871210099954624,t,"(480.0, 270.0)",0,2078.678499965463,1747.0299999695271,True,False
4,2,41.89173929998651,t,"(480.0, 270.0)",0,2099.2076999973506,1767.5592000014149,True,False
4,2,41.90649069997016,t,"(480.0, 270.0)",0,2113.9590999810025,1782.3105999850668,True,False
4,2,50.50085059995763,cross,"(480.0, -270.0)",330.52999997744337,10708.31899996847,10376.670499972533,False,True
4,3,52.53375409997534,circle,"(-480.0, -270.0)",332.7143000205979,12741.22249998618,2032.90350001771,False,True
