trial_num,selection_num,timestamp,shape,position,fixation_duration_ms,rt_from_trial_start_ms,rt_from_previous_selection_ms,queued_selection,was_executed
13,1,191.66799860005267,circle,"(-480.0, -270.0)",0,0.013199867680668831,0.013199867680668831,False,True
13,2,191.9340696001891,circle,"(-480.0, -270.0)",264.18180018663406,266.0842000041157,266.07100013643503,True,False
13,2,191.9525626001414,circle,"(-480.0, -270.0)",0,284.5771999564022,284.5640000887215,True,False
13,2,191.96652820007876,circle,"(-480.0, -270.0)",0,298.54279989376664,298.529600026086,True,False
13,2,191.98297160002403,circle,"(-480.0, -270.0)",0,314.98619983904064,314.97299997135997,True,False
13,2,191.9996815000195,circle,"(-480.0, -270.0)",0,331.69609983451664,331.682899966836,True,False
13,2,192.01636430015787,circle,"(-480.0, -270.0)",0,348.37889997288585,348.3657001052052,True,False
13,2,192.03300120006315,circle,"(-480.0, -270.0)",0,365.0157998781651,365.00260001048446,True,False
13,2,192.05059700016864,circle,"(-480.0, -270.0)",0,382.61159998364747,382.5984001159668,True,False
13,2,192.06707220012322,circle,"(-480.0, -270.0)",0,399.0867999382317,399.07360007055104,True,False
13,2,192.08372610015795,circle,"(-480.0, -270.0)",0,415.7406999729574,415.7275001052767,True,False
13,2,192.1004399000667,circle,"(-480.0, -270.0)",0,432.4544998817146,432.4413000140339,True,False
13,2,192.1171275000088,circle,"(-480.0, -270.0)",0,449.1420998238027,449.12889995612204,True,False
13,2,192.1337137001101,circle,"(-480.0, -270.0)",0,465.7282999251038,465.7151000574231,True,False
13,2,192.1503915002104,circle,"(-480.0, -270.0)",0,482.4061000254005,482.39290015771985,True,False
13,2,192.1666501001455,circle,"(-480.0, -270.0)",0,498.6646999605,498.65150009281933,True,False
13,2,192.1831009001471,circle,"(-480.0, -270.0)",0,515.1154999621212,515.1023000944406,True,False
13,2,192.19948150007986,circle,"(-480.0, -270.0)",0,531.4960998948663,531.4829000271857,True,False
13,2,192.21626370004378,circle,"(-480.0, -270.0)",0,548.2782998587936,548.265099991113,True,False
13,2,192.23287480021827,circle,"(-480.0, -270.0)",0,564.8894000332803,564.8762001655996,True,False
13,2,192.25057450006716,circle,"(-480.0, -270.0)",0,582.5890998821706,582.5759000144899,True,False
13,2,192.26716990000568,circle,"(-480.0, -270.0)",0,599.1844998206943,599.1712999530137,True,False
13,2,192.28393580019474,circle,"(-480.0, -270.0)",0,615.9504000097513,615.9372001420707,True,False
13,2,192.30054670013487,circle,"(-480.0, -270.0)",0,632.5612999498844,632.5481000822037,True,False
13,2,192.31744320015423,circle,"(-480.0, -270.0)",0,649.457799969241,649.4446001015604,True,False
13,2,192.33401690004393,circle,"(-480.0, -270.0)",0,666.0314998589456,666.0182999912649,True,False
13,2,192.34931390010752,circle,"(-480.0, -270.0)",0,681.3284999225289,681.3153000548482,True,False
13,2,192.36621310003102,circle,"(-480.0, -270.0)",0,698.2276998460293,698.2144999783486,True,False
13,2,192.38285050005652,circle,"(-480.0, -270.0)",0,714.8650998715311,714.8519000038505,True,False
13,2,192.39969370001927,circle,"(-480.0, -270.0)",0,731.7082998342812,731.6950999666005,True,False
13,2,192.4163512000814,circle,"(-480.0, -270.0)",0,748.365799896419,748.3526000287384,True,False
13,2,192.43265600013547,circle,"(-480.0, -270.0)",0,764.6705999504775,764.6574000827968,True,False
13,2,192.45037070009857,circle,"(-480.0, -270.0)",0,782.3852999135852,782.3721000459045,True,False
13,2,192.46719600004144,circle,"(-480.0, -270.0)",0,799.2105998564512,799.1973999887705,True,False
13,2,192.48386830021627,circle,"(-480.0, -270.0)",0,815.8829000312835,815.8697001636028,True,False
13,2,192.50041520013474,circle,"(-480.0, -270.0)",0,832.4297999497503,832.4166000820696,True,False
13,2,192.51721380022354,circle,"(-480.0, -270.0)",0,849.2284000385553,849.2152001708746,True,False
13,2,192.53361260006204,circle,"(-480.0, -270.0)",0,865.6271998770535,865.6140000093728,True,False
13,2,192.55050490004942,circle,"(-480.0, -270.0)",0,882.5194998644292,882.5062999967486,True,False
13,2,192.56587290018797,circle,"(-480.0, -270.0)",0,897.8875000029802,897.8743001352996,True,False
13,2,192.58291490003467,circle,"(-480.0, -270.0)",0,914.9294998496771,914.9162999819964,True,False
13,2,192.5995936000254,circle,"(-480.0, -270.0)",0,931.6081998404115,931.5949999727309,True,False
13,2,192.61604610015638,circle,"(-480.0, -270.0)",0,948.0606999713928,948.0475001037121,True,False
13,2,192.63279140018858,circle,"(-480.0, -270.0)",0,964.8060000035912,964.7928001359105,True,False
13,2,192.6495358000975,circle,"(-480.0, -270.0)",0,981.5503999125212,981.5372000448406,True,False
13,2,192.66611700016074,circle,"(-480.0, -270.0)",0,998.1315999757499,998.1184001080692,True,False
13,2,192.6838450001087,circle,"(-480.0, -270.0)",0,1015.859599923715,1015.8464000560343,True,False
13,2,192.70040110009722,circle,"(-480.0, -270.0)",0,1032.4156999122351,1032.4025000445545,True,False
13,2,192.71685540000908,circle,"(-480.0, -270.0)",0,1048.8699998240918,1048.8567999564111,True,False
13,2,192.73351550009102,circle,"(-480.0, -270.0)",0,1065.5300999060273,1065.5169000383466,True,False
13,2,192.7502039000392,circle,"(-480.0, -270.0)",0,1082.218499854207,1082.2052999865264,True,False
13,2,192.76681940001436,circle,"(-480.0, -270.0)",0,1098.8339998293668,1098.8207999616861,True,False
13,2,192.78367940010503,circle,"(-480.0, -270.0)",0,1115.6939999200404,1115.6808000523597,True,False
13,2,192.80043080006726,circle,"(-480.0, -270.0)",0,1132.4453998822719,1132.4322000145912,True,False
13,2,192.81686510005966,circle,"(-480.0, -270.0)",0,1148.8796998746693,1148.8665000069886,True,False
13,2,192.83354810019955,circle,"(-480.0, -270.0)",0,1165.5627000145614,1165.5495001468807,True,False
13,2,192.84904510015622,circle,"(-480.0, -270.0)",0,1181.0596999712288,1181.0465001035482,True,False
13,2,192.8662574000191,circle,"(-480.0, -270.0)",0,1198.2719998341054,1198.2587999664247,True,False
13,2,192.88276790012605,circle,"(-480.0, -270.0)",0,1214.782499941066,1214.7693000733852,True,False
13,2,192.89945130003616,circle,"(-480.0, -270.0)",0,1231.4658998511732,1231.4526999834925,True,False
13,2,192.9159758000169,circle,"(-480.0, -270.0)",0,1247.990399831906,1247.9771999642253,True,False
13,2,192.93353200005367,circle,"(-480.0, -270.0)",0,1265.546599868685,1265.5334000010043,True,False
13,2,192.9503168000374,circle,"(-480.0, -270.0)",0,1282.33139985241,1282.3181999847293,True,False
13,2,192.96705420012586,circle,"(-480.0, -270.0)",0,1299.0687999408692,1299.0556000731885,True,False
13,2,192.98340160003863,circle,"(-480.0, -270.0)",0,1315.4161998536438,1315.402999985963,True,False
13,2,193.00007550022565,circle,"(-480.0, -270.0)",0,1332.0901000406593,1332.0769001729786,True,False
13,2,193.01709910016507,circle,"(-480.0, -270.0)",0,1349.1136999800801,1349.1005001123995,True,False
13,2,193.03233700012788,circle,"(-480.0, -270.0)",0,1364.3515999428928,1364.3384000752121,True,False
13,2,193.0494155001361,circle,"(-480.0, -270.0)",0,1381.4300999511033,1381.4169000834227,True,False
13,2,193.06585470004939,circle,"(-480.0, -270.0)",0,1397.8692998643965,1397.8560999967158,True,False
13,2,193.08263910003006,circle,"(-480.0, -270.0)",0,1414.6536998450756,1414.640499977395,True,False
13,2,193.09975850000046,circle,"(-480.0, -270.0)",0,1431.773099815473,1431.7598999477923,True,False
13,2,193.1169435000047,circle,"(-480.0, -270.0)",0,1448.9580998197198,1448.9448999520391,True,False
13,2,193.1335887000896,circle,"(-480.0, -270.0)",0,1465.6032999046147,1465.590100036934,True,False
13,2,193.15029330016114,circle,"(-480.0, -270.0)",0,1482.3078999761492,1482.2947001084685,True,False
13,2,193.16667700000107,circle,"(-480.0, -270.0)",0,1498.691599816084,1498.6783999484032,True,False
13,2,193.1835097000003,circle,"(-480.0, -270.0)",0,1515.5242998152971,1515.5110999476165,True,False
13,2,193.2004902001936,circle,"(-480.0, -270.0)",0,1532.50480000861,1532.4916001409292,True,False
13,2,193.21685570012778,circle,"(-480.0, -270.0)",0,1548.8702999427915,1548.8571000751108,True,False
13,2,193.23381860018708,circle,"(-480.0, -270.0)",0,1565.8332000020891,1565.8200001344085,True,False
13,2,193.24909540009685,circle,"(-480.0, -270.0)",0,1581.1099999118596,1581.096800044179,True,False
13,2,193.26587670017034,circle,"(-480.0, -270.0)",0,1597.8912999853492,1597.8781001176685,True,False
13,2,193.28250710014254,circle,"(-480.0, -270.0)",0,1614.5216999575496,1614.508500089869,True,False
13,2,193.2995267000515,circle,"(-480.0, -270.0)",0,1631.5412998665124,1631.5280999988317,True,False
13,2,193.31600040011108,circle,"(-480.0, -270.0)",0,1648.0149999260902,1648.0018000584096,True,False
13,2,193.33318870002404,circle,"(-480.0, -270.0)",0,1665.2032998390496,1665.190099971369,True,False
13,2,193.35030300007202,circle,"(-480.0, -270.0)",0,1682.3175998870283,1682.3044000193477,True,False
13,2,193.3668742000591,circle,"(-480.0, -270.0)",0,1698.888799874112,1698.8756000064313,True,False
13,2,193.3834394000005,circle,"(-480.0, -270.0)",0,1715.4539998155087,1715.440799947828,True,False
13,2,193.39996830001473,circle,"(-480.0, -270.0)",0,1731.9828998297453,1731.9696999620646,True,False
13,2,193.4166356001515,circle,"(-480.0, -270.0)",0,1748.6501999665052,1748.6370000988245,True,False
13,2,193.43321650009602,circle,"(-480.0, -270.0)",0,1765.231099911034,1765.2179000433534,True,False
13,2,193.4499494000338,circle,"(-480.0, -270.0)",0,1781.9639998488128,1781.9507999811321,True,False
13,2,193.46666050003842,circle,"(-480.0, -270.0)",0,1798.6750998534262,1798.6618999857455,True,False
13,2,193.58291840017773,cross,"(480.0, -270.0)",265.3985000215471,1914.9329999927431,1914.9198001250625,False,True
13,3,193.8498182001058,cross,"(480.0, -270.0)",264.61869990453124,2181.8327999208122,266.8997999280691,True,False
13,3,193.86833720002323,cross,"(480.0, -270.0)",0,2200.351799838245,285.4187998455018,True,False
13,3,193.88214210001752,cross,"(480.0, -270.0)",0,2214.156699832529,299.2236998397857,True,False
13,3,193.8990246001631,cross,"(480.0, -270.0)",0,2231.039199978113,316.10619998537004,True,False
13,3,193.91659540007822,cross,"(480.0, -270.0)",0,2248.609999893233,333.67699990049005,True,False
13,3,193.93265450000763,cross,"(480.0, -270.0)",0,2264.6690998226404,349.7360998298973,True,False
13,3,193.94886880018748,cross,"(480.0, -270.0)",0,2280.8834000024945,365.9504000097513,True,False
13,3,193.96578660001978,cross,"(480.0, -270.0)",0,2297.801199834794,382.86819984205067,True,False
13,3,193.98251420003362,cross,"(480.0, -270.0)",0,2314.528799848631,399.5957998558879,True,False
13,3,193.99910910008475,cross,"(480.0, -270.0)",0,2331.123699899763,416.19069990701973,True,False
13,3,194.01656950009055,cross,"(480.0, -270.0)",0,2348.5840999055654,433.65109991282225,True,False
13,3,194.0333059001714,cross,"(480.0, -270.0)",0,2365.32049998641,450.387499993667,True,False
13,3,194.04981220001355,cross,"(480.0, -270.0)",0,2381.826799828559,466.893799835816,True,False
13,3,194.06658210000023,cross,"(480.0, -270.0)",0,2398.5966998152435,483.66369982250035,True,False
13,3,194.08305310015567,cross,"(480.0, -270.0)",0,2415.0676999706775,500.13469997793436,True,False
13,3,194.0997259002179,cross,"(480.0, -270.0)",0,2431.7405000329018,516.8075000401586,True,False
13,3,194.11660890001804,cross,"(480.0, -270.0)",0,2448.6234998330474,533.6904998403043,True,False
13,3,194.13316630013287,cross,"(480.0, -270.0)",0,2465.1808999478817,550.2478999551386,True,False
13,3,194.1486748000607,cross,"(480.0, -270.0)",0,2480.6893998757005,565.7563998829573,True,False
13,3,194.16552170016803,cross,"(480.0, -270.0)",0,2497.5362999830395,582.6032999902964,True,False
13,3,194.18227720004506,cross,"(480.0, -270.0)",0,2514.291799860075,599.358799867332,True,False
13,3,194.1988654001616,cross,"(480.0, -270.0)",0,2530.879999976605,615.946999983862,True,False
13,3,194.21597860008478,cross,"(480.0, -270.0)",0,2547.9931998997927,633.0601999070495,True,False
13,3,194.23235960002057,cross,"(480.0, -270.0)",0,2564.3741998355836,649.4411998428404,True,False
13,3,194.24972670013085,cross,"(480.0, -270.0)",0,2581.741299945861,666.808299953118,True,False
13,3,194.2664191001095,cross,"(480.0, -270.0)",0,2598.433699924499,683.5006999317557,True,False
13,3,194.28298750007525,cross,"(480.0, -270.0)",0,2615.002099890262,700.0690998975188,True,False
13,3,194.3000424001366,cross,"(480.0, -270.0)",0,2632.056999951601,717.1239999588579,True,False
13,3,194.31638700002804,cross,"(480.0, -270.0)",0,2648.401599843055,733.4685998503119,True,False
13,3,194.33321920013987,cross,"(480.0, -270.0)",0,2665.2337999548763,750.3007999621332,True,False
13,3,194.3498218001332,cross,"(480.0, -270.0)",0,2681.8363999482244,766.9033999554813,True,False
13,3,194.36646120017394,cross,"(480.0, -270.0)",0,2698.4757999889553,783.5427999962121,True,False
13,3,194.38228960009292,cross,"(480.0, -270.0)",0,2714.3041999079287,799.3711999151856,True,False
13,3,194.39883310021833,cross,"(480.0, -270.0)",0,2730.847700033337,815.9147000405937,True,False
13,3,194.41546000004746,cross,"(480.0, -270.0)",0,2747.474599862471,832.5415998697281,True,False
13,3,194.4323633001186,cross,"(480.0, -270.0)",0,2764.3778999336064,849.4448999408633,True,False
13,3,194.4489523000084,cross,"(480.0, -270.0)",0,2780.9668998233974,866.0338998306543,True,False
13,3,194.46551070013084,cross,"(480.0, -270.0)",0,2797.525299945846,882.5922999531031,True,False
13,3,194.48325050016865,cross,"(480.0, -270.0)",0,2815.2650999836624,900.3320999909192,True,False
13,3,194.49985710019246,cross,"(480.0, -270.0)",0,2831.8717000074685,916.9387000147253,True,False
13,3,194.51637750002556,cross,"(480.0, -270.0)",0,2848.3920998405665,933.4590998478234,True,False
13,3,194.5331892000977,cross,"(480.0, -270.0)",0,2865.203799912706,950.2707999199629,True,False
13,3,194.54996990016662,cross,"(480.0, -270.0)",0,2881.984499981627,967.0514999888837,True,False
13,3,194.5665256001521,cross,"(480.0, -270.0)",0,2898.540199967101,983.6071999743581,True,False
13,3,194.5831829002127,cross,"(480.0, -270.0)",0,2915.197500027716,1000.264500034973,True,False
13,3,194.59873330011033,cross,"(480.0, -270.0)",0,2930.7478999253362,1015.8148999325931,True,False
13,3,194.61589350015856,cross,"(480.0, -270.0)",0,2947.9080999735743,1032.9750999808311,True,False
13,3,194.63244900014251,cross,"(480.0, -270.0)",0,2964.4635999575257,1049.5305999647826,True,False
13,3,194.64917370001785,cross,"(480.0, -270.0)",0,2981.1882998328656,1066.2552998401225,True,False
13,3,194.6656607000623,cross,"(480.0, -270.0)",0,2997.675299877301,1082.7422998845577,True,False
13,3,194.68232560018077,cross,"(480.0, -270.0)",0,3014.340199995786,1099.4072000030428,True,False
13,3,194.69978640018962,cross,"(480.0, -270.0)",0,3031.8010000046343,1116.8680000118911,True,False
13,3,194.71636220021173,cross,"(480.0, -270.0)",0,3048.3768000267446,1133.4438000340015,True,False
13,3,194.73353040008806,cross,"(480.0, -270.0)",0,3065.544999903068,1150.6119999103248,True,False
13,3,194.75001200009137,cross,"(480.0, -270.0)",0,3082.026599906385,1167.0935999136418,True,False
13,3,194.76664480008185,cross,"(480.0, -270.0)",0,3098.65939989686,1183.726399904117,True,False
13,3,194.78336730017327,cross,"(480.0, -270.0)",0,3115.3818999882787,1200.4488999955356,True,False
13,3,194.79991000005975,cross,"(480.0, -270.0)",0,3131.9245998747647,1216.9915998820215,True,False
13,3,194.81638540001586,cross,"(480.0, -270.0)",0,3148.399999830872,1233.4669998381287,True,False
13,3,194.83170930016786,cross,"(480.0, -270.0)",0,3163.7238999828696,1248.7908999901265,True,False
13,3,194.849066400202,cross,"(480.0, -270.0)",0,3181.081000017002,1266.148000024259,True,False
13,3,194.86559580010362,cross,"(480.0, -270.0)",0,3197.6103999186307,1282.6773999258876,True,False
13,3,194.88207160006277,cross,"(480.0, -270.0)",0,3214.0861998777837,1299.1531998850405,True,False
13,3,194.89883970003575,cross,"(480.0, -270.0)",0,3230.854299850762,1315.9212998580188,True,False
13,3,194.91555330017582,cross,"(480.0, -270.0)",0,3247.567899990827,1332.6348999980837,True,False
13,3,194.93305110000074,cross,"(480.0, -270.0)",0,3265.06569981575,1350.132699823007,True,False
13,3,194.94971460010856,cross,"(480.0, -270.0)",0,3281.729199923575,1366.7961999308318,True,False
13,3,194.96636630012654,cross,"(480.0, -270.0)",0,3298.3808999415487,1383.4478999488056,True,False
13,3,194.98285260004923,cross,"(480.0, -270.0)",0,3314.8671998642385,1399.9341998714954,True,False
13,3,194.99950010003522,cross,"(480.0, -270.0)",0,3331.5146998502314,1416.5816998574883,True,False
13,3,195.01616070000455,cross,"(480.0, -270.0)",0,3348.175299819559,1433.2422998268157,True,False
13,3,195.03166340012103,cross,"(480.0, -270.0)",0,3363.677999936044,1448.744999943301,True,False
13,3,195.04810570017435,cross,"(480.0, -270.0)",0,3380.1202999893576,1465.1872999966145,True,False
13,3,195.06559640006162,cross,"(480.0, -270.0)",0,3397.6109998766333,1482.6779998838902,True,False
13,3,195.0821027001366,cross,"(480.0, -270.0)",0,3414.117299951613,1499.1842999588698,True,False
13,3,195.09881000011228,cross,"(480.0, -270.0)",0,3430.8245999272913,1515.8915999345481,True,False
13,3,195.11551210004836,cross,"(480.0, -270.0)",0,3447.5266998633742,1532.593699870631,True,False
13,3,195.1328180001583,cross,"(480.0, -270.0)",0,3464.832599973306,1549.899599980563,True,False
13,3,195.14960460015573,cross,"(480.0, -270.0)",0,3481.619199970737,1566.686199977994,True,False
13,3,195.16630250005983,cross,"(480.0, -270.0)",0,3498.317099874839,1583.384099882096,True,False
13,3,195.1829535001889,cross,"(480.0, -270.0)",0,3514.968100003898,1600.035100011155,True,False
13,3,195.19962070020847,cross,"(480.0, -270.0)",0,3531.6353000234812,1616.7023000307381,True,False
13,3,195.2160937001463,cross,"(480.0, -270.0)",0,3548.1082999613136,1633.1752999685705,True,False
13,3,195.23290200019255,cross,"(480.0, -270.0)",0,3564.916600007564,1649.9836000148207,True,False
13,3,195.24956810008734,cross,"(480.0, -270.0)",0,3581.5826999023557,1666.6496999096125,True,False
13,3,195.26471530017443,cross,"(480.0, -270.0)",0,3596.729899989441,1681.796899996698,True,False
13,3,195.2821494000964,cross,"(480.0, -270.0)",0,3614.1639999113977,1699.2309999186546,True,False
13,3,195.29871840006672,cross,"(480.0, -270.0)",0,3630.7329998817295,1715.7999998889863,True,False
13,3,195.31530160014518,cross,"(480.0, -270.0)",0,3647.316199960187,1732.383199967444,True,False
13,3,195.33252170006745,cross,"(480.0, -270.0)",0,3664.5362998824567,1749.6032998897135,True,False
13,3,195.3484032000415,cross,"(480.0, -270.0)",0,3680.4177998565137,1765.4847998637706,True,False
13,3,195.36631220020354,cross,"(480.0, -270.0)",0,3698.326800018549,1783.3938000258058,True,False
13,3,197.6486450000666,t,"(480.0, 270.0)",266.6412000544369,5980.659599881619,4065.726599888876,False,True
13,4,200.98026150022633,cross,"(480.0, -270.0)",250.48810010775924,9312.276100041345,3331.6165001597255,False,True
14,1,205.0969567000866,circle,"(-480.0, -270.0)",0,0.013499986380338669,0.013499986380338669,False,True
14,2,205.97972250008024,circle,"(-480.0, -270.0)",252.0774998702109,882.7792999800295,882.7657999936491,True,False
14,2,206.0042232000269,circle,"(-480.0, -270.0)",0,907.2799999266863,907.266499940306,True,False
14,2,206.01337840012275,circle,"(-480.0, -270.0)",0,916.4352000225335,916.4217000361532,True,False
14,2,206.02919480018318,circle,"(-480.0, -270.0)",0,932.2516000829637,932.2381000965834,True,False
14,2,206.04606820014305,circle,"(-480.0, -270.0)",0,949.1250000428408,949.1115000564605,True,False
14,2,206.0625673001632,circle,"(-480.0, -270.0)",0,965.6241000629961,965.6106000766158,True,False
14,2,206.07959950016811,circle,"(-480.0, -270.0)",0,982.6563000679016,982.6428000815213,True,False
14,2,206.09602550021373,circle,"(-480.0, -270.0)",0,999.0823001135141,999.0688001271337,True,False
14,2,206.11265860009007,circle,"(-480.0, -270.0)",0,1015.7153999898583,1015.7019000034779,True,False
14,2,206.12843240005895,circle,"(-480.0, -270.0)",0,1031.4891999587417,1031.4756999723613,True,False
14,2,206.14505560020916,circle,"(-480.0, -270.0)",0,1048.1124001089483,1048.098900122568,True,False
14,2,206.1615816000849,circle,"(-480.0, -270.0)",0,1064.6383999846876,1064.6248999983072,True,False
14,2,206.1782591000665,circle,"(-480.0, -270.0)",0,1081.3158999662846,1081.3023999799043,True,False
14,2,206.19470320013352,circle,"(-480.0, -270.0)",0,1097.760000033304,1097.7465000469238,True,False
14,2,206.2127517000772,circle,"(-480.0, -270.0)",0,1115.8084999769926,1115.7949999906123,True,False
14,2,206.22946510021575,circle,"(-480.0, -270.0)",0,1132.5219001155347,1132.5084001291543,True,False
14,2,206.24607570003718,circle,"(-480.0, -270.0)",0,1149.132499936968,1149.1189999505877,True,False
14,2,206.26247990014963,circle,"(-480.0, -270.0)",0,1165.5367000494152,1165.523200063035,True,False
14,2,206.2791331000626,circle,"(-480.0, -270.0)",0,1182.1898999623954,1182.176399976015,True,False
14,2,206.29590360005386,circle,"(-480.0, -270.0)",0,1198.9603999536484,1198.946899967268,True,False
14,2,206.31281060003676,circle,"(-480.0, -270.0)",0,1215.867399936542,1215.8538999501616,True,False
14,2,206.32777030020952,circle,"(-480.0, -270.0)",0,1230.827100109309,1230.8136001229286,True,False
14,2,206.34479770017788,circle,"(-480.0, -270.0)",0,1247.8545000776649,1247.8410000912845,True,False
14,2,206.36153190000914,circle,"(-480.0, -270.0)",0,1264.588699908927,1264.5751999225467,True,False
14,2,206.37837810022756,circle,"(-480.0, -270.0)",0,1281.4349001273513,1281.421400140971,True,False
14,2,206.39501550002024,circle,"(-480.0, -270.0)",0,1298.0722999200225,1298.0587999336421,True,False
14,2,206.41142470017076,circle,"(-480.0, -270.0)",0,1314.481500070542,1314.4680000841618,True,False
14,2,206.42946850019507,circle,"(-480.0, -270.0)",0,1332.5253000948578,1332.5118001084775,True,False
14,2,206.44598740013316,circle,"(-480.0, -270.0)",0,1349.0442000329494,1349.030700046569,True,False
14,2,206.46249630022794,circle,"(-480.0, -270.0)",0,1365.5531001277268,1365.5396001413465,True,False
14,2,206.4791144002229,circle,"(-480.0, -270.0)",0,1382.1712001226842,1382.157700136304,True,False
14,2,206.49599310010672,circle,"(-480.0, -270.0)",0,1399.0499000065029,1399.0364000201225,True,False
14,2,206.51264160010032,circle,"(-480.0, -270.0)",0,1415.6984000001103,1415.68490001373,True,False
14,2,206.52918810001574,circle,"(-480.0, -270.0)",0,1432.2448999155313,1432.231399929151,True,False
14,2,206.54628530004993,circle,"(-480.0, -270.0)",0,1449.3420999497175,1449.3285999633372,True,False
14,2,206.56121760001406,circle,"(-480.0, -270.0)",0,1464.2743999138474,1464.260899927467,True,False
14,2,206.5781698001083,circle,"(-480.0, -270.0)",0,1481.2266000080854,1481.213100021705,True,False
14,2,206.59491240000352,circle,"(-480.0, -270.0)",0,1497.9691999033093,1497.955699916929,True,False
14,2,206.61160910013132,circle,"(-480.0, -270.0)",0,1514.6659000311047,1514.6524000447243,True,False
14,2,206.62862930004485,circle,"(-480.0, -270.0)",0,1531.6860999446362,1531.672599958256,True,False
14,2,206.6459885002114,circle,"(-480.0, -270.0)",0,1549.0453001111746,1549.0318001247942,True,False
14,2,206.66255450015888,circle,"(-480.0, -270.0)",0,1565.611300058663,1565.5978000722826,True,False
14,2,206.6792433001101,circle,"(-480.0, -270.0)",0,1582.3001000098884,1582.286600023508,True,False
14,2,206.6957128001377,circle,"(-480.0, -270.0)",0,1598.7696000374854,1598.756100051105,True,False
14,2,206.71237930003554,circle,"(-480.0, -270.0)",0,1615.436099935323,1615.4225999489427,True,False
14,2,206.729093400063,circle,"(-480.0, -270.0)",0,1632.1501999627799,1632.1366999763995,True,False
14,2,206.74584620003588,circle,"(-480.0, -270.0)",0,1648.9029999356717,1648.8894999492913,True,False
14,2,206.76101120002568,circle,"(-480.0, -270.0)",0,1664.0679999254644,1664.054499939084,True,False
14,2,206.7777223000303,circle,"(-480.0, -270.0)",0,1680.7790999300778,1680.7655999436975,True,False
14,2,206.79468090017326,circle,"(-480.0, -270.0)",0,1697.7377000730485,1697.7242000866681,True,False
14,2,206.8113347000908,circle,"(-480.0, -270.0)",0,1714.3914999905974,1714.378000004217,True,False
14,2,206.82795830001123,circle,"(-480.0, -270.0)",0,1731.0150999110192,1731.0015999246389,True,False
14,2,206.8447205000557,circle,"(-480.0, -270.0)",0,1747.7772999554873,1747.763799969107,True,False
14,2,206.86146540008485,circle,"(-480.0, -270.0)",0,1764.5221999846399,1764.5086999982595,True,False
14,2,206.87794660008512,circle,"(-480.0, -270.0)",0,1781.003399984911,1780.9898999985307,True,False
14,2,206.8957287000958,circle,"(-480.0, -270.0)",0,1798.7854999955744,1798.772000009194,True,False
14,2,208.29428300005384,cross,"(480.0, -270.0)",266.2327999714762,3197.3397999536246,3197.3262999672443,False,True
14,3,208.56180780008435,cross,"(480.0, -270.0)",264.54710005782545,3464.864599984139,267.5248000305146,True,False
14,3,208.58064160007052,cross,"(480.0, -270.0)",0,3483.698399970308,286.35860001668334,True,False
14,3,208.59505460015498,cross,"(480.0, -270.0)",0,3498.1114000547677,300.7716001011431,True,False
14,3,208.61178940022364,cross,"(480.0, -270.0)",0,3514.8462001234293,317.5064001698047,True,False
14,3,208.62855270016007,cross,"(480.0, -270.0)",0,3531.609500059858,334.26970010623336,True,False
14,3,208.64374620001763,cross,"(480.0, -270.0)",0,3546.8029999174178,349.46319996379316,True,False
14,3,208.66110830008984,cross,"(480.0, -270.0)",0,3564.165099989623,366.8253000359982,True,False
14,3,208.67743630008772,cross,"(480.0, -270.0)",0,3580.493099987507,383.15330003388226,True,False
14,3,208.69410190009512,cross,"(480.0, -270.0)",0,3597.158699994907,399.8189000412822,True,False
14,3,208.7109412001446,cross,"(480.0, -270.0)",0,3613.9980000443757,416.65820009075105,True,False
14,3,208.72753490018658,cross,"(480.0, -270.0)",0,3630.59170008637,433.2519001327455,True,False
14,3,208.7439265002031,cross,"(480.0, -270.0)",0,3646.9833001028746,449.64350014925003,True,False
14,3,208.7616764002014,cross,"(480.0, -270.0)",0,3664.733200101182,467.39340014755726,True,False
14,3,208.77874910016544,cross,"(480.0, -270.0)",0,3681.8059000652283,484.46610011160374,True,False
14,3,208.79529130016454,cross,"(480.0, -270.0)",0,3698.3481000643224,501.00830011069775,True,False
14,3,208.81165710021742,cross,"(480.0, -270.0)",0,3714.7139001172036,517.374100163579,True,False
14,3,208.82844840013422,cross,"(480.0, -270.0)",0,3731.5052000340074,534.1654000803828,True,False
14,3,208.8452525001485,cross,"(480.0, -270.0)",0,3748.309300048277,550.9695000946522,True,False
14,3,208.86053070006892,cross,"(480.0, -270.0)",0,3763.5874999687076,566.247700015083,True,False
14,3,208.87691450002603,cross,"(480.0, -270.0)",0,3779.971299925819,582.6314999721944,True,False
14,3,208.89391200011596,cross,"(480.0, -270.0)",0,3796.9688000157475,599.6290000621229,True,False
14,3,208.91064570005983,cross,"(480.0, -270.0)",0,3813.702499959618,616.3627000059932,True,False
14,3,208.92725350009277,cross,"(480.0, -270.0)",0,3830.3102999925613,632.9705000389367,True,False
14,3,208.9438934000209,cross,"(480.0, -270.0)",0,3846.950199920684,649.6103999670595,True,False
14,3,208.96063810004853,cross,"(480.0, -270.0)",0,3863.694899948314,666.3550999946892,True,False
14,3,208.97783160000108,cross,"(480.0, -270.0)",0,3880.8883999008685,683.5485999472439,True,False
14,3,208.9957018001005,cross,"(480.0, -270.0)",0,3898.758600000292,701.4188000466675,True,False
14,3,209.01215220009908,cross,"(480.0, -270.0)",0,3915.2089999988675,717.8692000452429,True,False
14,3,209.0293228002265,cross,"(480.0, -270.0)",0,3932.3796001262963,735.0398001726717,True,False
14,3,209.0450921000447,cross,"(480.0, -270.0)",0,3948.148899944499,750.8090999908745,True,False
14,3,209.0617862001527,cross,"(480.0, -270.0)",0,3964.843000052497,767.5032000988722,True,False
14,3,209.07835060008802,cross,"(480.0, -270.0)",0,3981.407399987802,784.0676000341773,True,False
14,3,209.09511910006404,cross,"(480.0, -270.0)",0,3998.175899963826,800.8361000102013,True,False
14,3,209.11037350003608,cross,"(480.0, -270.0)",0,4013.4302999358624,816.0904999822378,True,False
14,3,209.12773680011742,cross,"(480.0, -270.0)",0,4030.793600017205,833.4538000635803,True,False
14,3,209.14400930004194,cross,"(480.0, -270.0)",0,4047.0660999417305,849.7262999881059,True,False
14,3,209.16080270009115,cross,"(480.0, -270.0)",0,4063.85949999094,866.5197000373155,True,False
14,3,209.17791950004175,cross,"(480.0, -270.0)",0,4080.9762999415398,883.6364999879152,True,False
14,3,209.19409890007228,cross,"(480.0, -270.0)",0,4097.155699972063,899.8159000184387,True,False
14,3,209.2155395001173,cross,"(480.0, -270.0)",0,4118.596300017089,921.256500063464,True,False
14,3,209.22802110016346,cross,"(480.0, -270.0)",0,4131.0779000632465,933.7381001096219,True,False
14,3,209.2455295000691,cross,"(480.0, -270.0)",0,4148.586299968883,951.2465000152588,True,False
14,3,209.26171070011333,cross,"(480.0, -270.0)",0,4164.767500013113,967.4277000594884,True,False
14,3,209.27833230001852,cross,"(480.0, -270.0)",0,4181.389099918306,984.0492999646813,True,False
14,3,209.29498990019783,cross,"(480.0, -270.0)",0,4198.0467000976205,1000.7069001439959,True,False
14,3,209.31161410012282,cross,"(480.0, -270.0)",0,4214.670900022611,1017.3311000689864,True,False
14,3,209.3283209002111,cross,"(480.0, -270.0)",0,4231.377700110897,1034.0379001572728,True,False
14,3,209.34499350003898,cross,"(480.0, -270.0)",0,4248.050299938768,1050.7104999851435,True,False
14,3,209.36170470016077,cross,"(480.0, -270.0)",0,4264.761500060558,1067.4217001069337,True,False
14,3,209.3783783002291,cross,"(480.0, -270.0)",0,4281.435100128874,1084.0953001752496,True,False
14,3,209.393539900193,cross,"(480.0, -270.0)",0,4296.596700092778,1099.256900139153,True,False
14,3,209.4108065001201,cross,"(480.0, -270.0)",0,4313.863300019875,1116.5235000662506,True,False
14,3,209.4276361002121,cross,"(480.0, -270.0)",0,4330.692900111899,1133.3531001582742,True,False
14,3,209.44409660017118,cross,"(480.0, -270.0)",0,4347.153400070965,1149.8136001173407,True,False
14,3,209.4607079999987,cross,"(480.0, -270.0)",0,4363.76479989849,1166.4249999448657,True,False
14,3,209.47743850015104,cross,"(480.0, -270.0)",0,4380.495300050825,1183.1555000972003,True,False
14,3,209.4940382000059,cross,"(480.0, -270.0)",0,4397.094999905676,1199.755199952051,True,False
14,3,209.51066710008308,cross,"(480.0, -270.0)",0,4413.72389998287,1216.384100029245,True,False
14,3,209.52748920000158,cross,"(480.0, -270.0)",0,4430.545999901369,1233.2061999477446,True,False
14,3,209.54559360002168,cross,"(480.0, -270.0)",0,4448.650399921462,1251.3105999678373,True,False
14,3,209.5624791001901,cross,"(480.0, -270.0)",0,4465.53590008989,1268.1961001362652,True,False
14,3,209.578471200075,cross,"(480.0, -270.0)",0,4481.527999974787,1284.1882000211626,True,False
14,3,209.59512950014323,cross,"(480.0, -270.0)",0,4498.186300043017,1300.846500089392,True,False
14,3,209.6116782000754,cross,"(480.0, -270.0)",0,4514.73499997519,1317.395200021565,True,False
14,3,209.62814870011061,cross,"(480.0, -270.0)",0,4531.205500010401,1333.8657000567764,True,False
14,3,209.6447908000555,cross,"(480.0, -270.0)",0,4547.847599955276,1350.507800001651,True,False
14,3,209.6613635001704,cross,"(480.0, -270.0)",0,4564.420300070196,1367.0805001165718,True,False
14,3,209.67876510019414,cross,"(480.0, -270.0)",0,4581.821900093928,1384.4821001403034,True,False
14,3,209.69374510017224,cross,"(480.0, -270.0)",0,4596.801900072023,1399.4621001183987,True,False
14,3,209.7102048001252,cross,"(480.0, -270.0)",0,4613.261600024998,1415.9218000713736,True,False
14,3,209.72709739999846,cross,"(480.0, -270.0)",0,4630.154199898243,1432.8143999446183,True,False
14,3,209.7441474001389,cross,"(480.0, -270.0)",0,4647.204200038686,1449.8644000850618,True,False
14,3,209.76135120005347,cross,"(480.0, -270.0)",0,4664.407999953255,1467.0681999996305,True,False
14,3,209.77889050007798,cross,"(480.0, -270.0)",0,4681.9472999777645,1484.6075000241399,True,False
14,3,209.7957343000453,cross,"(480.0, -270.0)",0,4698.791099945083,1501.4512999914587,True,False
14,3,209.81238770019263,cross,"(480.0, -270.0)",0,4715.444500092417,1518.1047001387924,True,False
14,3,209.828191800043,cross,"(480.0, -270.0)",0,4731.248599942774,1533.908799989149,True,False
14,3,209.84500660002232,cross,"(480.0, -270.0)",0,4748.063399922103,1550.723599968478,True,False
14,3,209.86187490005977,cross,"(480.0, -270.0)",0,4764.931699959561,1567.5919000059366,True,False
14,3,209.87806330015883,cross,"(480.0, -270.0)",0,4781.120100058615,1583.7803001049906,True,False
14,3,209.89460330014117,cross,"(480.0, -270.0)",0,4797.660100040957,1600.3203000873327,True,False
14,3,209.91007290012203,cross,"(480.0, -270.0)",0,4813.129700021818,1615.7899000681937,True,False
14,3,209.92716430011205,cross,"(480.0, -270.0)",0,4830.2211000118405,1632.8813000582159,True,False
14,3,209.9435022000689,cross,"(480.0, -270.0)",0,4846.558999968693,1649.219200015068,True,False
14,3,209.96026220009662,cross,"(480.0, -270.0)",0,4863.318999996409,1665.9792000427842,True,False
14,3,209.9771615001373,cross,"(480.0, -270.0)",0,4880.218300037086,1682.8785000834614,True,False
14,3,209.99483060021885,cross,"(480.0, -270.0)",0,4897.887400118634,1700.5476001650095,True,False
14,3,210.0112461000681,cross,"(480.0, -270.0)",0,4914.302899967879,1716.9631000142545,True,False
14,3,210.02803650009446,cross,"(480.0, -270.0)",0,4931.093299994245,1733.7535000406206,True,False
14,3,210.04468910000287,cross,"(480.0, -270.0)",0,4947.745899902657,1750.406099949032,True,False
14,3,210.06123760016635,cross,"(480.0, -270.0)",0,4964.294400066137,1766.9546001125127,True,False
14,3,210.07805030001327,cross,"(480.0, -270.0)",0,4981.107099913061,1783.767299959436,True,False
15,1,217.61032370012254,circle,"(-480.0, -270.0)",0,0.01500011421740055,0.01500011421740055,False,True
15,2,218.40873240004294,circle,"(-480.0, -270.0)",266.0199999809265,798.4237000346184,798.408699920401,True,False
15,2,218.42787090013735,circle,"(-480.0, -270.0)",0,817.5622001290321,817.5472000148147,True,False
15,2,218.44060980016366,circle,"(-480.0, -270.0)",0,830.3011001553386,830.2861000411212,True,False
15,2,218.45771810016595,circle,"(-480.0, -270.0)",0,847.4094001576304,847.394400043413,True,False
15,2,218.47417950001545,circle,"(-480.0, -270.0)",0,863.8708000071347,863.8557998929173,True,False
15,2,218.49070150009356,circle,"(-480.0, -270.0)",0,880.3928000852466,880.3777999710292,True,False
15,2,218.507979700109,circle,"(-480.0, -270.0)",0,897.6710001006722,897.6559999864548,True,False
15,2,218.524100900162,circle,"(-480.0, -270.0)",0,913.7922001536936,913.7772000394762,True,False
15,2,218.54132550000213,circle,"(-480.0, -270.0)",0,931.016799993813,931.0017998795956,True,False
15,2,218.5586551001761,circle,"(-480.0, -270.0)",0,948.346400167793,948.3314000535756,True,False
15,2,218.57536890008487,circle,"(-480.0, -270.0)",0,965.0602000765502,965.0451999623328,True,False
15,2,218.59182320022956,circle,"(-480.0, -270.0)",0,981.5145002212375,981.4995001070201,True,False
15,2,218.6084886000026,circle,"(-480.0, -270.0)",0,998.1798999942839,998.1648998800665,True,False
15,2,218.62525690020993,circle,"(-480.0, -270.0)",0,1014.9482002016157,1014.9332000873983,True,False
15,2,218.64195900014602,circle,"(-480.0, -270.0)",0,1031.6503001376987,1031.6353000234812,True,False
15,2,218.65699550020508,circle,"(-480.0, -270.0)",0,1046.6868001967669,1046.6718000825495,True,False
15,2,218.67447390011512,circle,"(-480.0, -270.0)",0,1064.1652001067996,1064.1501999925822,True,False
15,2,218.69067160016857,circle,"(-480.0, -270.0)",0,1080.362900160253,1080.3479000460356,True,False
15,2,218.7074631000869,circle,"(-480.0, -270.0)",0,1097.1544000785798,1097.1393999643624,True,False
15,2,218.72406800021417,circle,"(-480.0, -270.0)",0,1113.7593002058566,1113.7443000916392,True,False
15,2,218.74077740008943,circle,"(-480.0, -270.0)",0,1130.46870008111,1130.4536999668926,True,False
15,2,218.75847240001895,circle,"(-480.0, -270.0)",0,1148.1637000106275,1148.14869989641,True,False
15,2,218.77522580022924,circle,"(-480.0, -270.0)",0,1164.9171002209187,1164.9021001067013,True,False
15,2,218.79190200008452,circle,"(-480.0, -270.0)",0,1181.5933000762016,1181.5782999619842,True,False
15,2,218.80845550005324,circle,"(-480.0, -270.0)",0,1198.146800044924,1198.1317999307066,True,False
15,2,218.82517150021158,circle,"(-480.0, -270.0)",0,1214.8628002032638,1214.8478000890464,True,False
15,2,218.84165420010686,circle,"(-480.0, -270.0)",0,1231.3455000985414,1231.330499984324,True,False
15,2,218.85700580012053,circle,"(-480.0, -270.0)",0,1246.6971001122147,1246.6820999979973,True,False
15,2,218.8740562000312,circle,"(-480.0, -270.0)",0,1263.7475000228733,1263.7324999086559,True,False
15,2,218.89063760009594,circle,"(-480.0, -270.0)",0,1280.3289000876248,1280.3138999734074,True,False
15,2,218.90748980012722,circle,"(-480.0, -270.0)",0,1297.1811001189053,1297.166100004688,True,False
15,2,218.92399040004238,circle,"(-480.0, -270.0)",0,1313.681700034067,1313.6666999198496,True,False
15,2,218.94068040000275,circle,"(-480.0, -270.0)",0,1330.37169999443,1330.3566998802125,True,False
15,2,218.95840140013024,circle,"(-480.0, -270.0)",0,1348.0927001219243,1348.0777000077069,True,False
15,2,218.9749947001692,circle,"(-480.0, -270.0)",0,1364.686000160873,1364.6710000466555,True,False
15,2,218.99174080020748,circle,"(-480.0, -270.0)",0,1381.432100199163,1381.4171000849456,True,False
15,2,219.0083207001444,circle,"(-480.0, -270.0)",0,1398.0120001360774,1397.99700002186,True,False
15,2,219.02495270012878,circle,"(-480.0, -270.0)",0,1414.644000120461,1414.6290000062436,True,False
15,2,219.04167530010454,circle,"(-480.0, -270.0)",0,1431.3666000962257,1431.3515999820083,True,False
15,2,219.05700190016069,circle,"(-480.0, -270.0)",0,1446.6932001523674,1446.67820003815,True,False
15,2,219.07431310019456,circle,"(-480.0, -270.0)",0,1464.0044001862407,1463.9894000720233,True,False
15,2,219.0907964000944,circle,"(-480.0, -270.0)",0,1480.487700086087,1480.4726999718696,True,False
15,2,219.10720359999686,circle,"(-480.0, -270.0)",0,1496.894899988547,1496.8798998743296,True,False
15,2,219.12403770000674,circle,"(-480.0, -270.0)",0,1513.7289999984205,1513.713999884203,True,False
15,2,219.14049090002663,circle,"(-480.0, -270.0)",0,1530.1822000183165,1530.167199904099,True,False
15,2,219.15837070019916,circle,"(-480.0, -270.0)",0,1548.0620001908392,1548.0470000766218,True,False
15,2,219.1749304002151,circle,"(-480.0, -270.0)",0,1564.6217002067715,1564.606700092554,True,False
15,2,219.19169280002825,circle,"(-480.0, -270.0)",0,1581.3841000199318,1581.3690999057144,True,False
15,2,219.20839210017584,circle,"(-480.0, -270.0)",0,1598.0834001675248,1598.0684000533074,True,False
15,2,219.2249802001752,circle,"(-480.0, -270.0)",0,1614.671500166878,1614.6565000526607,True,False
15,2,219.24212300009094,circle,"(-480.0, -270.0)",0,1631.814300082624,1631.7992999684066,True,False
15,2,219.25942070013843,circle,"(-480.0, -270.0)",0,1649.112000130117,1649.0970000158995,True,False
15,2,219.2741985002067,circle,"(-480.0, -270.0)",0,1663.8898001983762,1663.8748000841588,True,False
15,2,219.29135190020315,circle,"(-480.0, -270.0)",0,1681.0432001948357,1681.0282000806183,True,False
15,2,219.3080841000192,circle,"(-480.0, -270.0)",0,1697.775400010869,1697.7603998966515,True,False
15,2,219.32474490022287,circle,"(-480.0, -270.0)",0,1714.43620021455,1714.4212001003325,True,False
15,2,219.3416722000111,circle,"(-480.0, -270.0)",0,1731.3635000027716,1731.3484998885542,True,False
15,2,219.35799680021591,circle,"(-480.0, -270.0)",0,1747.688100207597,1747.6731000933796,True,False
15,2,219.37469070008956,circle,"(-480.0, -270.0)",0,1764.3820000812411,1764.3669999670237,True,False
15,2,219.39132710010745,circle,"(-480.0, -270.0)",0,1781.0184000991285,1781.003399984911,True,False
15,2,220.37326550018042,cross,"(480.0, -270.0)",265.2881999965757,2762.9568001721054,2762.941800057888,False,True
15,3,220.6393891000189,cross,"(480.0, -270.0)",263.0342999473214,3029.080400010571,266.12359983846545,True,False
15,3,220.65933160018176,cross,"(480.0, -270.0)",0,3049.0229001734406,286.06610000133514,True,False
15,3,220.67348180012777,cross,"(480.0, -270.0)",0,3063.1731001194566,300.2162999473512,True,False
15,3,220.69136970001273,cross,"(480.0, -270.0)",0,3081.0610000044107,318.1041998323053,True,False
15,3,220.7082056000363,cross,"(480.0, -270.0)",0,3097.8969000279903,334.9400998558849,True,False
15,3,220.7245101002045,cross,"(480.0, -270.0)",0,3114.2014001961797,351.2446000240743,True,False
15,3,220.7412305001635,cross,"(480.0, -270.0)",0,3130.9218001551926,367.9649999830872,True,False
15,3,220.7577471002005,cross,"(480.0, -270.0)",0,3147.4384001921862,384.4816000200808,True,False
15,3,220.77450780011714,cross,"(480.0, -270.0)",0,3164.199100108817,401.2422999367118,True,False
15,3,220.7896930000279,cross,"(480.0, -270.0)",0,3179.384300019592,416.4274998474866,True,False
15,3,220.8067747000605,cross,"(480.0, -270.0)",0,3196.466000052169,433.50919988006353,True,False
15,3,220.82342880009674,cross,"(480.0, -270.0)",0,3213.1201000884175,450.1632999163121,True,False
15,3,220.84008320001885,cross,"(480.0, -270.0)",0,3229.774500010535,466.8176998384297,True,False
15,3,220.85672270017676,cross,"(480.0, -270.0)",0,3246.4140001684427,483.4571999963373,True,False
15,3,220.87354440009221,cross,"(480.0, -270.0)",0,3263.2357000838965,500.2788999117911,True,False
15,3,220.89028060017154,cross,"(480.0, -270.0)",0,3279.9719001632184,517.015099991113,True,False
15,3,220.90797380008735,cross,"(480.0, -270.0)",0,3297.66510007903,534.7082999069244,True,False
15,3,220.92450420022942,cross,"(480.0, -270.0)",0,3314.1955002211034,551.238700048998,True,False
15,3,220.94127160008065,cross,"(480.0, -270.0)",0,3330.962900072336,568.0060999002308,True,False
15,3,220.95760780014098,cross,"(480.0, -270.0)",0,3347.299100132659,584.3422999605536,True,False
15,3,220.9743282001,cross,"(480.0, -270.0)",0,3364.019500091672,601.0626999195665,True,False
15,3,220.99101250013337,cross,"(480.0, -270.0)",0,3380.7038001250476,617.7469999529421,True,False
15,3,221.00762020004913,cross,"(480.0, -270.0)",0,3397.3115000408143,634.3546998687088,True,False
15,3,221.02435460011475,cross,"(480.0, -270.0)",0,3414.04590010643,651.0890999343246,True,False
15,3,221.0399756000843,cross,"(480.0, -270.0)",0,3429.666900075972,666.7100999038666,True,False
15,3,221.0569537000265,cross,"(480.0, -270.0)",0,3446.6450000181794,683.688199846074,True,False
15,3,221.07335840002634,cross,"(480.0, -270.0)",0,3463.0497000180185,700.092899845913,True,False
15,3,221.08990500005893,cross,"(480.0, -270.0)",0,3479.5963000506163,716.6394998785108,True,False
15,3,221.1068944002036,cross,"(480.0, -270.0)",0,3496.5857001952827,733.6289000231773,True,False
15,3,221.123644300038,cross,"(480.0, -270.0)",0,3513.335600029677,750.3787998575717,True,False
15,3,221.14007840002887,cross,"(480.0, -270.0)",0,3529.7697000205517,766.8128998484462,True,False
15,3,221.15770270000212,cross,"(480.0, -270.0)",0,3547.393999993801,784.4371998216957,True,False
15,3,221.1743591001723,cross,"(480.0, -270.0)",0,3564.0504001639783,801.0935999918729,True,False
15,3,221.1908842001576,cross,"(480.0, -270.0)",0,3580.57550014928,817.6186999771744,True,False
15,3,221.20760030020028,cross,"(480.0, -270.0)",0,3597.2916001919657,834.3348000198603,True,False
15,3,221.2242281001527,cross,"(480.0, -270.0)",0,3613.9194001443684,850.962599972263,True,False
15,3,221.24116850015707,cross,"(480.0, -270.0)",0,3630.8598001487553,867.9029999766499,True,False
15,3,221.256702600047,cross,"(480.0, -270.0)",0,3646.3939000386745,883.437099866569,True,False
15,3,221.27364410017617,cross,"(480.0, -270.0)",0,3663.3354001678526,900.3785999957472,True,False
15,3,221.2905738002155,cross,"(480.0, -270.0)",0,3680.26510020718,917.3083000350744,True,False
15,3,221.3070189000573,cross,"(480.0, -270.0)",0,3696.710200048983,933.7533998768777,True,False
15,3,221.32423730008304,cross,"(480.0, -270.0)",0,3713.9286000747234,950.9717999026179,True,False
15,3,221.34025220014155,cross,"(480.0, -270.0)",0,3729.9435001332313,966.9866999611259,True,False
15,3,221.35825180006213,cross,"(480.0, -270.0)",0,3747.943100053817,984.9862998817116,True,False
15,3,221.37486780015752,cross,"(480.0, -270.0)",0,3764.5591001491994,1001.6022999770939,True,False
15,3,221.39147510007024,cross,"(480.0, -270.0)",0,3781.1664000619203,1018.2095998898149,True,False
15,3,221.4080109000206,cross,"(480.0, -270.0)",0,3797.7022000122815,1034.745399840176,True,False
15,3,221.42458590003662,cross,"(480.0, -270.0)",0,3814.2772000283003,1051.3203998561949,True,False
15,3,221.4409253001213,cross,"(480.0, -270.0)",0,3830.6166001129895,1067.659799940884,True,False
15,3,221.45762290013954,cross,"(480.0, -270.0)",0,3847.3142001312226,1084.3573999591172,True,False
15,3,221.47422430012375,cross,"(480.0, -270.0)",0,3863.9156001154333,1100.958799943328,True,False
15,3,221.48979980009608,cross,"(480.0, -270.0)",0,3879.491100087762,1116.5342999156564,True,False
15,3,221.50679800007492,cross,"(480.0, -270.0)",0,3896.489300066605,1133.5324998944998,True,False
15,3,221.52322450000793,cross,"(480.0, -270.0)",0,3912.9157999996096,1149.9589998275042,True,False
15,3,221.54030000022613,cross,"(480.0, -270.0)",0,3929.9913002178073,1167.0345000457019,True,False
15,3,221.5565972002223,cross,"(480.0, -270.0)",0,3946.2885002139956,1183.3317000418901,True,False
15,3,221.57339700008743,cross,"(480.0, -270.0)",0,3963.0883000791073,1200.1314999070019,True,False
15,3,221.59015590022318,cross,"(480.0, -270.0)",0,3979.847200214863,1216.8904000427574,True,False
15,3,221.6066054000985,cross,"(480.0, -270.0)",0,3996.29670009017,1233.3398999180645,True,False
15,3,221.62466460000724,cross,"(480.0, -270.0)",0,4014.355899998918,1251.3990998268127,True,False
15,3,221.6408719001338,cross,"(480.0, -270.0)",0,4030.5632001254708,1267.6063999533653,True,False
15,3,221.6576609001495,cross,"(480.0, -270.0)",0,4047.3522001411766,1284.3953999690711,True,False
15,3,221.67425490007736,cross,"(480.0, -270.0)",0,4063.94620006904,1300.9893998969346,True,False
15,3,221.6909424001351,cross,"(480.0, -270.0)",0,4080.633700126782,1317.6768999546766,True,False
15,3,221.70762190013193,cross,"(480.0, -270.0)",0,4097.313200123608,1334.3563999515027,True,False
15,3,221.72314130002633,cross,"(480.0, -270.0)",0,4112.8326000180095,1349.875799845904,True,False
15,3,221.7403180000838,cross,"(480.0, -270.0)",0,4130.009300075471,1367.052499903366,True,False
15,3,221.75621090014465,cross,"(480.0, -270.0)",0,4145.902200136334,1382.9453999642283,True,False
15,3,221.77330790017731,cross,"(480.0, -270.0)",0,4162.999200168997,1400.0423999968916,True,False
15,3,221.78983470005915,cross,"(480.0, -270.0)",0,4179.526000050828,1416.5691998787224,True,False
15,3,221.8067100001499,cross,"(480.0, -270.0)",0,4196.401300141588,1433.4444999694824,True,False
15,3,221.82319520018063,cross,"(480.0, -270.0)",0,4212.886500172317,1449.9297000002116,True,False
15,3,221.83976710005663,cross,"(480.0, -270.0)",0,4229.4584000483155,1466.50159987621,True,False
15,3,221.85732860001735,cross,"(480.0, -270.0)",0,4247.019900009036,1484.0630998369306,True,False
15,3,221.87404100014828,cross,"(480.0, -270.0)",0,4263.732300139964,1500.7754999678582,True,False
15,3,221.89068890013732,cross,"(480.0, -270.0)",0,4280.380200129002,1517.423399956897,True,False
15,3,221.90735930018127,cross,"(480.0, -270.0)",0,4297.050600172952,1534.0938000008464,True,False
15,3,221.92394440015778,cross,"(480.0, -270.0)",0,4313.635700149462,1550.6788999773562,True,False
15,3,221.9406588000711,cross,"(480.0, -270.0)",0,4330.3501000627875,1567.393299890682,True,False
15,3,221.95731370011345,cross,"(480.0, -270.0)",0,4347.005000105128,1584.0481999330223,True,False
15,3,221.97445350000635,cross,"(480.0, -270.0)",0,4364.14479999803,1601.1879998259246,True,False
15,3,221.9894360001199,cross,"(480.0, -270.0)",0,4379.127300111577,1616.1704999394715,True,False
15,3,222.00644010002725,cross,"(480.0, -270.0)",0,4396.13140001893,1633.174599846825,True,False
15,3,222.02328330022283,cross,"(480.0, -270.0)",0,4412.974600214511,1650.0178000424057,True,False
15,3,222.03988789999858,cross,"(480.0, -270.0)",0,4429.579199990258,1666.6223998181522,True,False
15,3,222.05668130004779,cross,"(480.0, -270.0)",0,4446.372600039467,1683.4157998673618,True,False
15,3,222.07297750003636,cross,"(480.0, -270.0)",0,4462.668800028041,1699.7119998559356,True,False
15,3,222.09065160015598,cross,"(480.0, -270.0)",0,4480.342900147662,1717.3860999755561,True,False
15,3,222.10733360005543,cross,"(480.0, -270.0)",0,4497.0249000471085,1734.068099875003,True,False
15,3,222.12411580001935,cross,"(480.0, -270.0)",0,4513.807100011036,1750.8502998389304,True,False
15,3,222.1406884000171,cross,"(480.0, -270.0)",0,4530.37970000878,1767.4228998366743,True,False
15,3,227.1055372999981,circle,"(-480.0, -270.0)",266.62479992955923,9495.228599989787,6732.271799817681,False,True
15,4,229.62118370016105,cross,"(480.0, -270.0)",266.4377000182867,12010.875000152737,2515.64640016295,False,True
16,1,233.72110570012592,circle,"(-480.0, -270.0)",0,0.013299984857439995,0.013299984857439995,False,True
16,2,233.98667430016212,cross,"(480.0, -270.0)",263.6391001287848,265.5819000210613,265.56860003620386,True,False
16,2,234.00540070002899,cross,"(480.0, -270.0)",0,284.3082998879254,284.29499990306795,True,False
16,2,234.01983720017597,cross,"(480.0, -270.0)",0,298.74480003491044,298.731500050053,True,False
16,2,234.0371684001293,cross,"(480.0, -270.0)",0,316.075999988243,316.06270000338554,True,False
16,2,234.0533913001418,cross,"(480.0, -270.0)",0,332.298900000751,332.2856000158936,True,False
16,2,234.07023280020803,cross,"(480.0, -270.0)",0,349.1404000669718,349.12710008211434,True,False
16,2,234.08575710002333,cross,"(480.0, -270.0)",0,364.6646998822689,364.65139989741147,True,False
16,2,234.10255740000866,cross,"(480.0, -270.0)",0,381.4649998676032,381.45169988274574,True,False
16,2,234.1190778000746,cross,"(480.0, -270.0)",0,397.9853999335319,397.97209994867444,True,False
16,2,234.13588660000823,cross,"(480.0, -270.0)",0,414.79419986717403,414.7808998823166,True,False
16,2,234.15270930016413,cross,"(480.0, -270.0)",0,431.61690002307296,431.6036000382155,True,False
16,2,234.17002080008388,cross,"(480.0, -270.0)",0,448.9283999428153,448.91509995795786,True,False
16,2,234.18668100005016,cross,"(480.0, -270.0)",0,465.58859990909696,465.5752999242395,True,False
16,2,234.2034179000184,cross,"(480.0, -270.0)",0,482.32549987733364,482.3121998924762,True,False
16,2,234.22006370010786,cross,"(480.0, -270.0)",0,498.97129996679723,498.9579999819398,True,False
16,2,234.2366671001073,cross,"(480.0, -270.0)",0,515.574699966237,515.5613999813795,True,False
16,2,234.25326100015081,cross,"(480.0, -270.0)",0,532.1686000097543,532.1553000248969,True,False
16,2,234.2699680000078,cross,"(480.0, -270.0)",0,548.875599866733,548.8622998818755,True,False
16,2,234.2868525001686,cross,"(480.0, -270.0)",0,565.7601000275463,565.7468000426888,True,False
16,2,234.30230800015852,cross,"(480.0, -270.0)",0,581.2156000174582,581.2023000326008,True,False
16,2,234.31875450001098,cross,"(480.0, -270.0)",0,597.6620998699218,597.6487998850644,True,False
16,2,234.33586870017461,cross,"(480.0, -270.0)",0,614.7763000335544,614.763000048697,True,False
16,2,234.3523972001858,cross,"(480.0, -270.0)",0,631.3048000447452,631.2915000598878,True,False
16,2,234.3691878002137,cross,"(480.0, -270.0)",0,648.0954000726342,648.0821000877768,True,False
16,2,234.38594930013642,cross,"(480.0, -270.0)",0,664.8568999953568,664.8436000104994,True,False
16,2,234.40234900009818,cross,"(480.0, -270.0)",0,681.2565999571234,681.243299972266,True,False
16,2,234.42006350005977,cross,"(480.0, -270.0)",0,698.9710999187082,698.9577999338508,True,False
16,2,234.43663440016098,cross,"(480.0, -270.0)",0,715.5420000199229,715.5287000350654,True,False
16,2,234.45326750003733,cross,"(480.0, -270.0)",0,732.175099896267,732.1617999114096,True,False
16,2,234.46988780004904,cross,"(480.0, -270.0)",0,748.7953999079764,748.782099923119,True,False
16,2,234.48655420006253,cross,"(480.0, -270.0)",0,765.4617999214679,765.4484999366105,True,False
16,2,234.5032794000581,cross,"(480.0, -270.0)",0,782.1869999170303,782.1736999321729,True,False
16,2,234.51994730019942,cross,"(480.0, -270.0)",0,798.8549000583589,798.8416000735015,True,False
16,2,234.53654860006645,cross,"(480.0, -270.0)",0,815.4561999253929,815.4428999405354,True,False
16,2,234.5531947000418,cross,"(480.0, -270.0)",0,832.1022999007255,832.088999915868,True,False
16,2,234.56926200003363,cross,"(480.0, -270.0)",0,848.1695998925716,848.1562999077141,True,False
16,2,234.58564780000597,cross,"(480.0, -270.0)",0,864.555399864912,864.5420998800546,True,False
16,2,234.6024580001831,cross,"(480.0, -270.0)",0,881.3656000420451,881.3523000571877,True,False
16,2,234.61943960003555,cross,"(480.0, -270.0)",0,898.3471998944879,898.3338999096304,True,False
16,2,234.63585590012372,cross,"(480.0, -270.0)",0,914.763499982655,914.7501999977976,True,False
16,2,234.6524385001976,cross,"(480.0, -270.0)",0,931.346100056544,931.3328000716865,True,False
16,2,234.668880000012,cross,"(480.0, -270.0)",0,947.7875998709351,947.7742998860776,True,False
16,2,234.68651830009185,cross,"(480.0, -270.0)",0,965.4258999507874,965.41259996593,True,False
16,2,234.6881955000572,circle,"(-480.0, -270.0)",266.49499987252057,967.1030999161303,967.0897999312729,True,False
16,2,234.70539860008284,circle,"(-480.0, -270.0)",0,984.3061999417841,984.2928999569267,True,False
16,2,234.71975080017,circle,"(-480.0, -270.0)",0,998.658400028944,998.6451000440866,True,False
16,2,234.7365841001738,circle,"(-480.0, -270.0)",0,1015.4917000327259,1015.4784000478685,True,False
16,2,234.75329010002315,circle,"(-480.0, -270.0)",0,1032.19769988209,1032.1843998972327,True,False
16,2,234.77006380003877,circle,"(-480.0, -270.0)",0,1048.9713998977095,1048.958099912852,True,False
16,2,234.786544600036,circle,"(-480.0, -270.0)",0,1065.452199894935,1065.4388999100775,True,False
16,2,234.8018506001681,circle,"(-480.0, -270.0)",0,1080.7582000270486,1080.7449000421911,True,False
16,2,234.8189607001841,circle,"(-480.0, -270.0)",0,1097.8683000430465,1097.855000058189,True,False
16,2,234.8358059001621,circle,"(-480.0, -270.0)",0,1114.7135000210255,1114.700200036168,True,False
16,2,234.85230100015178,circle,"(-480.0, -270.0)",0,1131.2086000107229,1131.1953000258654,True,False
16,2,234.87179370014928,circle,"(-480.0, -270.0)",0,1150.7013000082225,1150.688000023365,True,False
16,2,234.88573270011693,circle,"(-480.0, -270.0)",0,1164.640299975872,1164.6269999910146,True,False
16,2,234.90315690007992,circle,"(-480.0, -270.0)",0,1182.0644999388605,1182.051199954003,True,False
16,2,234.9198671001941,circle,"(-480.0, -270.0)",0,1198.7747000530362,1198.7614000681788,True,False
16,2,234.93659820011817,circle,"(-480.0, -270.0)",0,1215.5057999771088,1215.4924999922514,True,False
16,2,234.95317270001397,circle,"(-480.0, -270.0)",0,1232.080299872905,1232.0669998880476,True,False
16,2,234.96991030010395,circle,"(-480.0, -270.0)",0,1248.8178999628872,1248.8045999780297,True,False
16,2,234.9865649000276,circle,"(-480.0, -270.0)",0,1265.4724998865277,1265.4591999016702,True,False
16,2,235.00329970009625,circle,"(-480.0, -270.0)",0,1282.2072999551892,1282.1939999703318,True,False
16,2,235.01992830005474,circle,"(-480.0, -270.0)",0,1298.8358999136835,1298.822599928826,True,False
16,2,235.0366380000487,circle,"(-480.0, -270.0)",0,1315.5455999076366,1315.5322999227792,True,False
16,2,235.05181350000203,circle,"(-480.0, -270.0)",0,1330.7210998609662,1330.7077998761088,True,False
16,2,235.0686968001537,circle,"(-480.0, -270.0)",0,1347.6044000126421,1347.5911000277847,True,False
16,2,235.08572030020878,circle,"(-480.0, -270.0)",0,1364.6279000677168,1364.6146000828594,True,False
16,2,235.10298960004002,circle,"(-480.0, -270.0)",0,1381.8971998989582,1381.8838999141008,True,False
16,2,235.1194819000084,circle,"(-480.0, -270.0)",0,1398.389499867335,1398.3761998824775,True,False
16,2,235.1356021000538,circle,"(-480.0, -270.0)",0,1414.5096999127418,1414.4963999278843,True,False
16,2,235.1532338000834,circle,"(-480.0, -270.0)",0,1432.1413999423385,1432.128099957481,True,False
16,2,235.16980060003698,circle,"(-480.0, -270.0)",0,1448.7081998959184,1448.694899911061,True,False
16,2,235.18637260003015,circle,"(-480.0, -270.0)",0,1465.2801998890936,1465.2668999042362,True,False
16,2,235.2031921001617,circle,"(-480.0, -270.0)",0,1482.0997000206262,1482.0864000357687,True,False
16,2,235.21987540018745,circle,"(-480.0, -270.0)",0,1498.7830000463873,1498.7697000615299,True,False
16,2,235.23642290011048,circle,"(-480.0, -270.0)",0,1515.3304999694228,1515.3171999845654,True,False
16,2,235.2531073000282,circle,"(-480.0, -270.0)",0,1532.0148998871446,1532.0015999022871,True,False
16,2,235.26968000014313,circle,"(-480.0, -270.0)",0,1548.5876000020653,1548.5743000172079,True,False
16,2,235.2866321001202,circle,"(-480.0, -270.0)",0,1565.5396999791265,1565.526399994269,True,False
16,2,235.30170630011708,circle,"(-480.0, -270.0)",0,1580.613899976015,1580.6005999911577,True,False
16,2,235.3194797001779,circle,"(-480.0, -270.0)",0,1598.3873000368476,1598.3740000519902,True,False
16,2,235.33541040006094,circle,"(-480.0, -270.0)",0,1614.3179999198765,1614.304699935019,True,False
16,2,235.3521757000126,circle,"(-480.0, -270.0)",0,1631.083299871534,1631.0699998866767,True,False
16,2,235.3690762000624,circle,"(-480.0, -270.0)",0,1647.9837999213487,1647.9704999364913,True,False
16,2,235.3855773000978,circle,"(-480.0, -270.0)",0,1664.484899956733,1664.4715999718755,True,False
16,2,235.40326290018857,circle,"(-480.0, -270.0)",0,1682.170500047505,1682.1572000626475,True,False
16,2,235.41975350002758,circle,"(-480.0, -270.0)",0,1698.6610998865217,1698.6477999016643,True,False
16,2,235.4362967000343,circle,"(-480.0, -270.0)",0,1715.2042998932302,1715.1909999083728,True,False
16,2,235.4530025999993,circle,"(-480.0, -270.0)",0,1731.9101998582482,1731.8968998733908,True,False
16,2,235.46962980017997,circle,"(-480.0, -270.0)",0,1748.537400038913,1748.5241000540555,True,False
16,2,235.48628950002603,circle,"(-480.0, -270.0)",0,1765.197099884972,1765.1837999001145,True,False
16,2,235.50296250008978,circle,"(-480.0, -270.0)",0,1781.8700999487191,1781.8567999638617,True,False
16,2,235.51968270004727,circle,"(-480.0, -270.0)",0,1798.590299906209,1798.5769999213517,True,False
16,2,236.63436950021423,t,"(480.0, 270.0)",265.08849998936057,2913.2771000731736,2913.263800088316,False,True
16,3,236.9033003000077,t,"(480.0, 270.0)",266.4443999528885,3182.2078998666257,268.930799793452,True,False
16,3,236.9216083001811,t,"(480.0, 270.0)",0,3200.5159000400454,287.23879996687174,True,False
16,3,236.93597010010853,t,"(480.0, 270.0)",0,3214.8776999674737,301.6005998943001,True,False
16,3,236.9529341000598,t,"(480.0, 270.0)",0,3231.841699918732,318.5645998455584,True,False
16,3,236.96957450010814,t,"(480.0, 270.0)",0,3248.4820999670774,335.20499989390373,True,False
16,3,236.98644630005583,t,"(480.0, 270.0)",0,3265.3538999147713,352.0767998415977,True,False
16,3,237.0013074001763,t,"(480.0, 270.0)",0,3280.2150000352412,366.9378999620676,True,False
16,3,237.0182110001333,t,"(480.0, 270.0)",0,3297.1185999922454,383.8414999190718,True,False
16,3,237.0347320002038,t,"(480.0, 270.0)",0,3313.639600062743,400.3624999895692,True,False
16,3,237.0513495001942,t,"(480.0, 270.0)",0,3330.2571000531316,416.97999997995794,True,False
16,3,237.06809180020355,t,"(480.0, 270.0)",0,3346.9994000624865,433.7222999893129,True,False
16,3,237.08485230011865,t,"(480.0, 270.0)",0,3363.7598999775946,450.482799904421,True,False
16,3,237.1027565000113,t,"(480.0, 270.0)",0,3381.6640998702496,468.386999797076,True,False
16,3,237.11908110021614,t,"(480.0, 270.0)",0,3397.988700075075,484.7116000019014,True,False
16,3,237.13582370011136,t,"(480.0, 270.0)",0,3414.731299970299,501.45419989712536,True,False
16,3,237.15282240021043,t,"(480.0, 270.0)",0,3431.730000069365,518.4528999961913,True,False
16,3,237.16930130007677,t,"(480.0, 270.0)",0,3448.2088999357074,534.9317998625338,True,False
16,3,237.18613390019163,t,"(480.0, 270.0)",0,3465.0415000505745,551.7643999774009,True,False
16,3,237.20121110021137,t,"(480.0, 270.0)",0,3480.1187000703067,566.841599997133,True,False
16,3,237.2180600001011,t,"(480.0, 270.0)",0,3496.967599960044,583.6904998868704,True,False
16,3,237.23463360010646,t,"(480.0, 270.0)",0,3513.5411999654025,600.2640998922288,True,False
16,3,237.25127700017765,t,"(480.0, 270.0)",0,3530.1846000365913,616.9074999634176,True,False
16,3,237.2678912000265,t,"(480.0, 270.0)",0,3546.798799885437,633.5216998122633,True,False
16,3,237.2848859000951,t,"(480.0, 270.0)",0,3563.793499954045,650.5163998808712,True,False
16,3,237.30145120015368,t,"(480.0, 270.0)",0,3580.3588000126183,667.0816999394447,True,False
16,3,237.31924980017357,t,"(480.0, 270.0)",0,3598.1574000325054,684.8802999593318,True,False
16,3,237.33576620020904,t,"(480.0, 270.0)",0,3614.673800067976,701.3966999948025,True,False
16,3,237.35259920009412,t,"(480.0, 270.0)",0,3631.5067999530584,718.2296998798847,True,False
16,3,237.3691859000828,t,"(480.0, 270.0)",0,3648.0934999417514,734.8163998685777,True,False
16,3,237.38581910007633,t,"(480.0, 270.0)",0,3664.7266999352723,751.4495998620987,True,False
16,3,237.40271630021743,t,"(480.0, 270.0)",0,3681.6239000763744,768.3468000032008,True,False
16,3,237.41941090021282,t,"(480.0, 270.0)",0,3698.318500071764,785.0413999985904,True,False
16,3,237.43580750003457,t,"(480.0, 270.0)",0,3714.7150998935103,801.4379998203367,True,False
16,3,237.45239350013435,t,"(480.0, 270.0)",0,3731.3010999932885,818.0239999201149,True,False
16,3,237.46754080010578,t,"(480.0, 270.0)",0,3746.44839996472,833.1712998915464,True,False
16,3,237.48468880006112,t,"(480.0, 270.0)",0,3763.5963999200612,850.3192998468876,True,False
16,3,237.50135350017808,t,"(480.0, 270.0)",0,3780.2611000370234,866.9839999638498,True,False
16,3,237.51783160003833,t,"(480.0, 270.0)",0,3796.7391998972744,883.4620998241007,True,False
16,3,237.53494320018217,t,"(480.0, 270.0)",0,3813.8508000411093,900.5736999679357,True,False
16,3,237.5512814000249,t,"(480.0, 270.0)",0,3830.1889998838305,916.9118998106569,True,False
16,3,237.5678383000195,t,"(480.0, 270.0)",0,3846.7458998784423,933.4687998052686,True,False
16,3,237.5857958002016,t,"(480.0, 270.0)",0,3864.7034000605345,951.4262999873608,True,False
16,3,237.6024407001678,t,"(480.0, 270.0)",0,3881.3483000267297,968.0711999535561,True,False
16,3,237.61924770008773,t,"(480.0, 270.0)",0,3898.1552999466658,984.8781998734921,True,False
16,3,237.63603980001062,t,"(480.0, 270.0)",0,3914.947399869561,1001.6702997963876,True,False
16,3,237.65244230022654,t,"(480.0, 270.0)",0,3931.349900085479,1018.0728000123054,True,False
16,3,237.66904290020466,t,"(480.0, 270.0)",0,3947.950500063598,1034.6733999904245,True,False
16,3,237.68419070006348,t,"(480.0, 270.0)",0,3963.0982999224216,1049.821199849248,True,False
16,3,237.70122890011407,t,"(480.0, 270.0)",0,3980.136499973014,1066.8593998998404,True,False
16,3,237.7178253000602,t,"(480.0, 270.0)",0,3996.7328999191523,1083.4557998459786,True,False
16,3,237.73462620005012,t,"(480.0, 270.0)",0,4013.5337999090552,1100.2566998358816,True,False
16,3,237.75142590003088,t,"(480.0, 270.0)",0,4030.333499889821,1117.0563998166472,True,False
16,3,237.76789290015586,t,"(480.0, 270.0)",0,4046.800500014797,1133.5233999416232,True,False
16,3,237.7860347002279,t,"(480.0, 270.0)",0,4064.942300086841,1151.6652000136673,True,False
16,3,237.80263440008275,t,"(480.0, 270.0)",0,4081.5419999416918,1168.2648998685181,True,False
16,3,237.81902160006575,t,"(480.0, 270.0)",0,4097.9291999246925,1184.6520998515189,True,False
16,3,237.83698810008354,t,"(480.0, 270.0)",0,4115.8956999424845,1202.6185998693109,True,False
16,3,237.85231170011684,t,"(480.0, 270.0)",0,4131.219299975783,1217.942199902609,True,False
16,3,237.8689681000542,t,"(480.0, 270.0)",0,4147.875699913129,1234.5985998399556,True,False
16,3,237.88432770012878,t,"(480.0, 270.0)",0,4163.2352999877185,1249.9581999145448,True,False
16,3,237.90128880017437,t,"(480.0, 270.0)",0,4180.19640003331,1266.9192999601364,True,False
16,3,237.91787180001847,t,"(480.0, 270.0)",0,4196.779399877414,1283.5022998042405,True,False
16,3,237.93449360015802,t,"(480.0, 270.0)",0,4213.4012000169605,1300.1240999437869,True,False
16,3,237.95110430009663,t,"(480.0, 270.0)",0,4230.011899955571,1316.734799882397,True,False
16,3,237.96790160005912,t,"(480.0, 270.0)",0,4246.8091999180615,1333.5320998448879,True,False
16,3,237.98589960020036,t,"(480.0, 270.0)",0,4264.807200059295,1351.530099986121,True,False
16,3,238.00242060003802,t,"(480.0, 270.0)",0,4281.328199896961,1368.0510998237878,True,False
16,3,238.0189536001999,t,"(480.0, 270.0)",0,4297.861200058833,1384.5840999856591,True,False
16,3,238.03555260016583,t,"(480.0, 270.0)",0,4314.460200024769,1401.183099951595,True,False
16,3,238.0525443002116,t,"(480.0, 270.0)",0,4331.451900070533,1418.1747999973595,True,False
16,3,238.06915970006958,t,"(480.0, 270.0)",0,4348.067299928516,1434.7901998553425,True,False
16,3,238.0841544000432,t,"(480.0, 270.0)",0,4363.061999902129,1449.7848998289555,True,False
16,3,238.1011659000069,t,"(480.0, 270.0)",0,4380.07349986583,1466.7963997926563,True,False
16,3,238.11918060015887,t,"(480.0, 270.0)",0,4398.08820001781,1484.8110999446362,True,False
16,3,238.13447370007634,t,"(480.0, 270.0)",0,4413.381299935281,1500.1041998621076,True,False
16,3,238.1513205000665,t,"(480.0, 270.0)",0,4430.2280999254435,1516.95099985227,True,False
16,3,238.1677512000315,t,"(480.0, 270.0)",0,4446.658799890429,1533.3816998172551,True,False
16,3,238.18438790016808,t,"(480.0, 270.0)",0,4463.295500027016,1550.0183999538422,True,False
16,3,238.20105590019375,t,"(480.0, 270.0)",0,4479.9635000526905,1566.6863999795169,True,False
16,3,238.21948310011066,t,"(480.0, 270.0)",0,4498.390699969605,1585.113599896431,True,False
16,3,238.23759810021147,t,"(480.0, 270.0)",0,4516.505700070411,1603.2285999972373,True,False
16,3,238.2528952001594,t,"(480.0, 270.0)",0,4531.80280001834,1618.5256999451667,True,False
16,3,238.2695316001773,t,"(480.0, 270.0)",0,4548.439200036228,1635.162099963054,True,False
16,3,238.28538140002638,t,"(480.0, 270.0)",0,4564.288999885321,1651.011899812147,True,False
16,3,238.301116600167,t,"(480.0, 270.0)",0,4580.024200025946,1666.7470999527723,True,False
16,3,238.3175617000088,t,"(480.0, 270.0)",0,4596.469299867749,1683.1921997945756,True,False
16,3,238.33451480022632,t,"(480.0, 270.0)",0,4613.4224000852555,1700.1453000120819,True,False
16,3,238.351223600097,t,"(480.0, 270.0)",0,4630.13119995594,1716.8540998827666,True,False
16,3,238.36790840001777,t,"(480.0, 270.0)",0,4646.815999876708,1733.5388998035342,True,False
16,3,238.38424890022725,t,"(480.0, 270.0)",0,4663.156500086188,1749.8794000130147,True,False
16,3,238.40089300018735,t,"(480.0, 270.0)",0,4679.800600046292,1766.5234999731183,True,False
16,3,238.41871690005064,t,"(480.0, 270.0)",0,4697.62449990958,1784.347399836406,True,False
16,3,240.68424720014445,star,"(-480.0, 270.0)",266.170599963516,6963.1548000033945,4049.877699930221,False,True
17,1,249.98376180022024,circle,"(-480.0, -270.0)",0,0.013400102034211159,0.013400102034211159,False,True
17,2,250.24831150006503,star,"(-480.0, 270.0)",262.9579999484122,264.5630999468267,264.5496998447925,True,False
17,2,250.26600620010868,star,"(-480.0, 270.0)",0,282.2577999904752,282.24439988844097,True,False
17,2,250.2800832001958,star,"(-480.0, 270.0)",0,296.33480007760227,296.32139997556806,True,False
17,2,250.2970202001743,star,"(-480.0, 270.0)",0,313.2718000560999,313.2583999540657,True,False
17,2,250.3138123000972,star,"(-480.0, 270.0)",0,330.0638999789953,330.0504998769611,True,False
17,2,250.33075910015032,star,"(-480.0, 270.0)",0,347.010700032115,346.99729993008077,True,False
17,2,250.34832770004869,star,"(-480.0, 270.0)",0,364.5792999304831,364.5658998284489,True,False
17,2,250.36490060016513,star,"(-480.0, 270.0)",0,381.15220004692674,381.1387999448925,True,False
17,2,250.38135760021396,star,"(-480.0, 270.0)",0,397.60920009575784,397.59579999372363,True,False
17,2,250.3982844001148,star,"(-480.0, 270.0)",0,414.53599999658763,414.5225998945534,True,False
17,2,250.41583200008608,star,"(-480.0, 270.0)",0,432.08359996788204,432.0701998658478,True,False
17,2,250.4315395001322,star,"(-480.0, 270.0)",0,447.79110001400113,447.7776999119669,True,False
17,2,250.44815680012107,star,"(-480.0, 270.0)",0,464.408400002867,464.3949999008328,True,False
17,2,250.46349670016207,star,"(-480.0, 270.0)",0,479.74830004386604,479.7348999418318,True,False
17,2,250.48036690009758,star,"(-480.0, 270.0)",0,496.6184999793768,496.6050998773426,True,False
17,2,250.49702270003036,star,"(-480.0, 270.0)",0,513.2742999121547,513.2608998101205,True,False
17,2,250.51371350022964,star,"(-480.0, 270.0)",0,529.9651001114398,529.9517000094056,True,False
17,2,250.5308262000326,star,"(-480.0, 270.0)",0,547.0777999144047,547.0643998123705,True,False
17,2,250.54728350020014,star,"(-480.0, 270.0)",0,563.5351000819355,563.5216999799013,True,False
17,2,250.56421040021814,star,"(-480.0, 270.0)",0,580.4620000999421,580.4485999979079,True,False
17,2,250.58154290006496,star,"(-480.0, 270.0)",0,597.7944999467582,597.7810998447239,True,False
17,2,250.59793220018037,star,"(-480.0, 270.0)",0,614.1838000621647,614.1703999601305,True,False
17,2,250.6149038001895,star,"(-480.0, 270.0)",0,631.1554000712931,631.1419999692589,True,False
17,2,250.6168908001855,circle,"(-480.0, -270.0)",250.19560009241104,633.1424000672996,633.1289999652654,True,False
17,2,250.63373890006915,circle,"(-480.0, -270.0)",0,649.9904999509454,649.9770998489112,True,False
17,2,250.6484086001292,circle,"(-480.0, -270.0)",0,664.6602000109851,664.6467999089509,True,False
17,2,250.66466680006124,circle,"(-480.0, -270.0)",0,680.9183999430388,680.9049998410046,True,False
17,2,250.68151680007577,circle,"(-480.0, -270.0)",0,697.7683999575675,697.7549998555332,True,False
17,2,250.6969399000518,circle,"(-480.0, -270.0)",0,713.1914999336004,713.1780998315662,True,False
17,2,250.7138676000759,circle,"(-480.0, -270.0)",0,730.1191999576986,730.1057998556644,True,False
17,2,250.73054090002552,circle,"(-480.0, -270.0)",0,746.7924999073148,746.7790998052806,True,False
17,2,250.74727610009722,circle,"(-480.0, -270.0)",0,763.5276999790221,763.5142998769879,True,False
17,2,250.763978500152,circle,"(-480.0, -270.0)",0,780.2301000338048,780.2166999317706,True,False
17,2,250.7805797001347,circle,"(-480.0, -270.0)",0,796.8313000164926,796.8178999144584,True,False
17,2,250.7979604001157,circle,"(-480.0, -270.0)",0,814.2119999974966,814.1985998954624,True,False
17,2,250.81463720020838,circle,"(-480.0, -270.0)",0,830.8888000901788,830.8753999881446,True,False
17,2,250.8312435001135,circle,"(-480.0, -270.0)",0,847.4950999952853,847.4816998932511,True,False
17,2,250.84791730018333,circle,"(-480.0, -270.0)",0,864.168900065124,864.1554999630898,True,False
17,2,250.86482700007036,circle,"(-480.0, -270.0)",0,881.0785999521613,881.0651998501271,True,False
17,2,250.88159750006162,circle,"(-480.0, -270.0)",0,897.8490999434143,897.8356998413801,True,False
17,2,250.89804670005105,circle,"(-480.0, -270.0)",0,914.2982999328524,914.2848998308182,True,False
17,2,250.91372780012898,circle,"(-480.0, -270.0)",0,929.9794000107795,929.9659999087453,True,False
17,2,250.93045220011845,circle,"(-480.0, -270.0)",0,946.7038000002503,946.6903998982161,True,False
17,2,250.9469254000578,circle,"(-480.0, -270.0)",0,963.1769999396056,963.1635998375714,True,False
17,2,250.9637463002,circle,"(-480.0, -270.0)",0,979.9979000817984,979.9844999797642,True,False
17,2,250.98046770016663,circle,"(-480.0, -270.0)",0,996.7193000484258,996.7058999463916,True,False
17,2,250.99715440021828,circle,"(-480.0, -270.0)",0,1013.4060001000762,1013.392599998042,True,False
17,2,251.01362700015306,circle,"(-480.0, -270.0)",0,1029.8786000348628,1029.8651999328285,True,False
17,2,251.0303510001395,circle,"(-480.0, -270.0)",0,1046.6026000212878,1046.5891999192536,True,False
17,2,251.04782650014386,circle,"(-480.0, -270.0)",0,1064.0781000256538,1064.0646999236196,True,False
17,2,251.0645026001148,circle,"(-480.0, -270.0)",0,1080.7541999965906,1080.7407998945564,True,False
17,2,251.08117560017854,circle,"(-480.0, -270.0)",0,1097.4272000603378,1097.4137999583036,True,False
17,2,251.0977934000548,circle,"(-480.0, -270.0)",0,1114.0449999365956,1114.0315998345613,True,False
17,2,251.11444580019452,circle,"(-480.0, -270.0)",0,1130.6974000763148,1130.6839999742806,True,False
17,2,251.13118070014752,circle,"(-480.0, -270.0)",0,1147.4323000293225,1147.4188999272883,True,False
17,2,251.14779140008613,circle,"(-480.0, -270.0)",0,1164.0429999679327,1164.0295998658985,True,False
17,2,251.16371730016544,circle,"(-480.0, -270.0)",0,1179.9689000472426,1179.9554999452084,True,False
17,2,251.18030230002478,circle,"(-480.0, -270.0)",0,1196.5538999065757,1196.5404998045415,True,False
17,2,251.19691570010036,circle,"(-480.0, -270.0)",0,1213.1672999821603,1213.1538998801261,True,False
17,2,251.21390760014765,circle,"(-480.0, -270.0)",0,1230.1592000294477,1230.1457999274135,True,False
17,2,251.230294900015,circle,"(-480.0, -270.0)",0,1246.5464998967946,1246.5330997947603,True,False
17,2,251.24685970018618,circle,"(-480.0, -270.0)",0,1263.1113000679761,1263.097899965942,True,False
17,2,251.26461670012213,circle,"(-480.0, -270.0)",0,1280.868300003931,1280.8548999018967,True,False
17,2,251.28127650008537,circle,"(-480.0, -270.0)",0,1297.5280999671668,1297.5146998651326,True,False
17,2,251.29777170019224,circle,"(-480.0, -270.0)",0,1314.023300074041,1314.0098999720067,True,False
17,2,251.31437250017188,circle,"(-480.0, -270.0)",0,1330.624100053683,1330.6106999516487,True,False
17,2,251.33105990011245,circle,"(-480.0, -270.0)",0,1347.3114999942482,1347.298099892214,True,False
17,2,251.34799450007267,circle,"(-480.0, -270.0)",0,1364.246099954471,1364.2326998524368,True,False
17,2,251.3649056002032,circle,"(-480.0, -270.0)",0,1381.1572000849992,1381.143799982965,True,False
17,2,251.38028650009073,circle,"(-480.0, -270.0)",0,1396.5380999725312,1396.524699870497,True,False
17,2,251.39681689999998,circle,"(-480.0, -270.0)",0,1413.0684998817742,1413.05509977974,True,False
17,2,251.41359980008565,circle,"(-480.0, -270.0)",0,1429.851399967447,1429.8379998654127,True,False
17,2,251.43076710007153,circle,"(-480.0, -270.0)",0,1447.0186999533325,1447.0052998512983,True,False
17,2,251.44697570009157,circle,"(-480.0, -270.0)",0,1463.2272999733686,1463.2138998713344,True,False
17,2,251.4644593000412,circle,"(-480.0, -270.0)",0,1480.7108999229968,1480.6974998209625,True,False
17,2,251.48106060014106,circle,"(-480.0, -270.0)",0,1497.3122000228614,1497.2987999208272,True,False
17,2,251.4977189002093,circle,"(-480.0, -270.0)",0,1513.9705000910908,1513.9570999890566,True,False
17,2,251.51434440002777,circle,"(-480.0, -270.0)",0,1530.5959999095649,1530.5825998075306,True,False
17,2,251.531026000157,circle,"(-480.0, -270.0)",0,1547.2776000387967,1547.2641999367625,True,False
17,2,251.54793470003642,circle,"(-480.0, -270.0)",0,1564.1862999182194,1564.1728998161852,True,False
17,2,251.56322640017606,circle,"(-480.0, -270.0)",0,1579.4780000578612,1579.464599955827,True,False
17,2,251.5801907000132,circle,"(-480.0, -270.0)",0,1596.4422998949885,1596.4288997929543,True,False
17,2,251.59689450007863,circle,"(-480.0, -270.0)",0,1613.1460999604315,1613.1326998583972,True,False
17,2,251.61333350022323,circle,"(-480.0, -270.0)",0,1629.5851001050323,1629.571700002998,True,False
17,2,251.6302333001513,circle,"(-480.0, -270.0)",0,1646.4849000331014,1646.4714999310672,True,False
17,2,251.6470609002281,circle,"(-480.0, -270.0)",0,1663.312500109896,1663.2991000078619,True,False
17,2,251.66363080008887,circle,"(-480.0, -270.0)",0,1679.8823999706656,1679.8689998686314,True,False
17,2,251.68117320002057,circle,"(-480.0, -270.0)",0,1697.4247999023646,1697.4113998003304,True,False
17,2,251.697669000132,circle,"(-480.0, -270.0)",0,1713.9206000138074,1713.9071999117732,True,False
17,2,251.7142958000768,circle,"(-480.0, -270.0)",0,1730.5473999585956,1730.5339998565614,True,False
17,2,251.7309472002089,circle,"(-480.0, -270.0)",0,1747.1988000907004,1747.1853999886662,True,False
17,2,251.7475639001932,circle,"(-480.0, -270.0)",0,1763.8155000749975,1763.8020999729633,True,False
17,2,251.7643374002073,circle,"(-480.0, -270.0)",0,1780.589000089094,1780.5755999870598,True,False
17,2,253.22969710011967,star,"(-480.0, 270.0)",250.38390001282096,3245.9487000014633,3245.935299899429,False,True
17,3,253.49700360000134,star,"(-480.0, 270.0)",264.4665997941047,3513.255199883133,267.3064998816699,True,False
17,3,253.5158367000986,star,"(-480.0, 270.0)",0,3532.088299980387,286.1395999789238,True,False
17,3,253.5302431001328,star,"(-480.0, 270.0)",0,3546.494700014591,300.5460000131279,True,False
17,3,253.54736140021123,star,"(-480.0, 270.0)",0,3563.613000093028,317.66430009156466,True,False
17,3,253.56385830021463,star,"(-480.0, 270.0)",0,3580.1099000964314,334.1612000949681,True,False
17,3,253.58071990008466,star,"(-480.0, 270.0)",0,3596.9714999664575,351.0227999649942,True,False
17,3,253.59741130005568,star,"(-480.0, 270.0)",0,3613.6628999374807,367.7141999360174,True,False
17,3,253.61396470014006,star,"(-480.0, 270.0)",0,3630.216300021857,384.26760002039373,True,False
17,3,253.62962770019658,star,"(-480.0, 270.0)",0,3645.879300078377,399.93060007691383,True,False
17,3,253.64618520019576,star,"(-480.0, 270.0)",0,3662.4368000775576,416.48810007609427,True,False
17,3,253.66278620017692,star,"(-480.0, 270.0)",0,3679.0378000587225,433.0891000572592,True,False
17,3,253.6797129001934,star,"(-480.0, 270.0)",0,3695.964500075206,450.01580007374287,True,False
17,3,253.69607430021279,star,"(-480.0, 270.0)",0,3712.3259000945836,466.37720009312034,True,False
17,3,253.7141964000184,star,"(-480.0, 270.0)",0,3730.447999900207,484.49929989874363,True,False
17,3,253.73054350004531,star,"(-480.0, 270.0)",0,3746.7950999271125,500.84639992564917,True,False
17,3,253.74766030022874,star,"(-480.0, 270.0)",0,3763.911900110543,517.9632001090795,True,False
17,3,253.76398650021292,star,"(-480.0, 270.0)",0,3780.2381000947207,534.2894000932574,True,False
17,3,253.7804547001142,star,"(-480.0, 270.0)",0,3796.7062999960035,550.7575999945402,True,False
17,3,253.79692100011744,star,"(-480.0, 270.0)",0,3813.172599999234,567.2238999977708,True,False
17,3,253.81358920014463,star,"(-480.0, 270.0)",0,3829.8408000264317,583.8921000249684,True,False
17,3,253.8302495002281,star,"(-480.0, 270.0)",0,3846.50110010989,600.5524001084268,True,False
17,3,253.8459730001632,star,"(-480.0, 270.0)",0,3862.2246000450104,616.2759000435472,True,False
17,3,253.86299300007522,star,"(-480.0, 270.0)",0,3879.244599957019,633.2958999555558,True,False
17,3,253.8794444000814,star,"(-480.0, 270.0)",0,3895.695999963209,649.7472999617457,True,False
17,3,253.8961438999977,star,"(-480.0, 270.0)",0,3912.3954998794943,666.446799878031,True,False
17,3,253.91281710006297,star,"(-480.0, 270.0)",0,3929.0686999447644,683.1199999433011,True,False
17,3,253.92954870010726,star,"(-480.0, 270.0)",0,3945.8002999890596,699.8515999875963,True,False
17,3,253.94692060002126,star,"(-480.0, 270.0)",0,3963.172199903056,717.2234999015927,True,False
17,3,253.96358750015497,star,"(-480.0, 270.0)",0,3979.83910003677,733.8904000353068,True,False
17,3,253.98037320002913,star,"(-480.0, 270.0)",0,3996.624799910933,750.6760999094695,True,False
17,3,253.99702640017495,star,"(-480.0, 270.0)",0,4013.2780000567436,767.3293000552803,True,False
17,3,254.01350260013714,star,"(-480.0, 270.0)",0,4029.7542000189424,783.8055000174791,True,False
17,3,254.03019390022382,star,"(-480.0, 270.0)",0,4046.4455001056194,800.4968001041561,True,False
17,3,254.0468975000549,star,"(-480.0, 270.0)",0,4063.149099936709,817.2003999352455,True,False
17,3,254.06352080008946,star,"(-480.0, 270.0)",0,4079.7723999712616,833.8236999697983,True,False
17,3,254.07900370005518,star,"(-480.0, 270.0)",0,4095.25529993698,849.3065999355167,True,False
17,3,254.0960028001573,star,"(-480.0, 270.0)",0,4112.254400039092,866.3057000376284,True,False
17,3,254.1127196000889,star,"(-480.0, 270.0)",0,4128.971199970692,883.0224999692291,True,False
17,3,254.12937530013733,star,"(-480.0, 270.0)",0,4145.626900019124,899.6782000176609,True,False
17,3,254.1462503001094,star,"(-480.0, 270.0)",0,4162.5018999911845,916.5531999897212,True,False
17,3,254.16359910019673,star,"(-480.0, 270.0)",0,4179.850700078532,933.9020000770688,True,False
17,3,254.18015260016546,star,"(-480.0, 270.0)",0,4196.404200047255,950.4555000457913,True,False
17,3,254.20166310016066,star,"(-480.0, 270.0)",0,4217.914700042456,971.9660000409931,True,False
17,3,254.21360930008814,star,"(-480.0, 270.0)",0,4229.860899969935,983.9121999684721,True,False
17,3,254.23022700008005,star,"(-480.0, 270.0)",0,4246.478599961847,1000.5298999603838,True,False
17,3,254.2469805001747,star,"(-480.0, 270.0)",0,4263.232100056484,1017.283400055021,True,False
17,3,254.26354960002936,star,"(-480.0, 270.0)",0,4279.801199911162,1033.852499909699,True,False
17,3,254.28012170013972,star,"(-480.0, 270.0)",0,4296.373300021514,1050.424600020051,True,False
17,3,254.29682090017013,star,"(-480.0, 270.0)",0,4313.072500051931,1067.1238000504673,True,False
17,3,254.31213279999793,star,"(-480.0, 270.0)",0,4328.384399879724,1082.4356998782605,True,False
17,3,254.33043970004655,star,"(-480.0, 270.0)",0,4346.691299928352,1100.742599926889,True,False
17,3,254.34674700000323,star,"(-480.0, 270.0)",0,4362.998599885032,1117.0498998835683,True,False
17,3,254.3627786000725,star,"(-480.0, 270.0)",0,4379.030199954286,1133.081499952823,True,False
17,3,254.37963970005512,star,"(-480.0, 270.0)",0,4395.89129993692,1149.942599935457,True,False
17,3,254.3966647000052,star,"(-480.0, 270.0)",0,4412.9162998870015,1166.9675998855382,True,False
17,3,254.4123423001729,star,"(-480.0, 270.0)",0,4428.593900054693,1182.64520005323,True,False
17,3,254.4302943001967,star,"(-480.0, 270.0)",0,4446.54590007849,1200.597200077027,True,False
17,3,254.44683140004054,star,"(-480.0, 270.0)",0,4463.082999922335,1217.1342999208719,True,False
17,3,254.4634702000767,star,"(-480.0, 270.0)",0,4479.721799958497,1233.773099957034,True,False
17,3,254.48027230007574,star,"(-480.0, 270.0)",0,4496.523899957538,1250.5751999560744,True,False
17,3,254.49674349999987,star,"(-480.0, 270.0)",0,4512.995099881664,1267.0463998802006,True,False
17,3,254.51342300022952,star,"(-480.0, 270.0)",0,4529.674600111321,1283.7259001098573,True,False
17,3,254.53005530009978,star,"(-480.0, 270.0)",0,4546.306899981573,1300.35819998011,True,False
17,3,254.54691090015694,star,"(-480.0, 270.0)",0,4563.162500038743,1317.2138000372797,True,False
17,3,254.5634809001349,star,"(-480.0, 270.0)",0,4579.732500016689,1333.783800015226,True,False
17,3,254.57868740009144,star,"(-480.0, 270.0)",0,4594.9389999732375,1348.9902999717742,True,False
17,3,254.59565820009448,star,"(-480.0, 270.0)",0,4611.909799976274,1365.961099974811,True,False
17,3,254.6126880000811,star,"(-480.0, 270.0)",0,4628.939599962905,1382.9908999614418,True,False
17,3,254.62944020004943,star,"(-480.0, 270.0)",0,4645.691799931228,1399.7430999297649,True,False
17,3,254.64585860003717,star,"(-480.0, 270.0)",0,4662.1101999189705,1416.1614999175072,True,False
17,3,254.66342470003292,star,"(-480.0, 270.0)",0,4679.676299914718,1433.7275999132544,True,False
17,3,254.68012070003897,star,"(-480.0, 270.0)",0,4696.372299920768,1450.4235999193043,True,False
17,3,254.69669200014323,star,"(-480.0, 270.0)",0,4712.943600025028,1466.9949000235647,True,False
17,3,254.71339510008693,star,"(-480.0, 270.0)",0,4729.646699968725,1483.6979999672621,True,False
17,3,254.73001230019145,star,"(-480.0, 270.0)",0,4746.263900073245,1500.3152000717819,True,False
17,3,254.74680700013414,star,"(-480.0, 270.0)",0,4763.058600015938,1517.109900014475,True,False
17,3,254.76347150001675,star,"(-480.0, 270.0)",0,4779.723099898547,1533.7743998970836,True,False
17,3,254.77866710000671,star,"(-480.0, 270.0)",0,4794.9186998885125,1548.9699998870492,True,False
17,3,254.79529870022088,star,"(-480.0, 270.0)",0,4811.550300102681,1565.6016001012176,True,False
17,3,254.81198670016602,star,"(-480.0, 270.0)",0,4828.238300047815,1582.2896000463516,True,False
17,3,254.8291056000162,star,"(-480.0, 270.0)",0,4845.35719989799,1599.4084998965263,True,False
17,3,254.84604280022904,star,"(-480.0, 270.0)",0,4862.294400110841,1616.3457001093775,True,False
17,3,254.86220080009662,star,"(-480.0, 270.0)",0,4878.452399978414,1632.5036999769509,True,False
17,3,254.88008640008047,star,"(-480.0, 270.0)",0,4896.33799996227,1650.389299960807,True,False
17,3,254.89678609999828,star,"(-480.0, 270.0)",0,4913.037699880078,1667.0889998786151,True,False
17,3,254.91334760002792,star,"(-480.0, 270.0)",0,4929.599199909717,1683.6504999082536,True,False
17,3,254.93002040009014,star,"(-480.0, 270.0)",0,4946.271999971941,1700.3232999704778,True,False
17,3,254.9480020001065,star,"(-480.0, 270.0)",0,4964.253599988297,1718.3048999868333,True,False
17,3,254.96349590015598,star,"(-480.0, 270.0)",0,4979.747500037774,1733.7988000363111,True,False
17,3,254.9805844000075,star,"(-480.0, 270.0)",0,4996.835999889299,1750.887299887836,True,False
17,3,254.99578570015728,star,"(-480.0, 270.0)",0,5012.037300039083,1766.0886000376195,True,False
17,3,255.01221150020137,star,"(-480.0, 270.0)",0,5028.463100083172,1782.514400081709,True,False
17,3,255.02897200011648,star,"(-480.0, 270.0)",0,5045.22359999828,1799.274899996817,True,False
17,3,260.0436813000124,star,"(-480.0, 270.0)",6526.319399941713,10059.932899894193,6813.9841998927295,False,True
17,4,265.4095669002272,t,"(480.0, 270.0)",266.47820021025836,15425.818500109017,5365.885600214824,False,True
