trial_num,selection_num,timestamp,shape,position,fixation_duration_ms,rt_from_trial_start_ms,rt_from_previous_selection_ms,queued_selection,was_executed
13,1,183.38129900000058,circle,"(-480.0, -270.0)",0,0.013299999409355223,0.013299999409355223,False,True
14,1,190.6917395000055,circle,"(-480.0, -270.0)",0,0.012599994079209864,0.012599994079209864,False,True
14,2,191.28977640000812,circle,"(-480.0, -270.0)",250.037899997551,598.049499996705,598.0369000026258,True,False
14,2,191.31091410000226,circle,"(-480.0, -270.0)",0,619.1871999908471,619.1745999967679,True,False
14,2,191.3232227999979,circle,"(-480.0, -270.0)",0,631.4958999864757,631.4832999923965,True,False
14,2,191.34078920001048,circle,"(-480.0, -270.0)",0,649.0622999990592,649.04970000498,True,False
14,2,191.35642200001166,circle,"(-480.0, -270.0)",0,664.6951000002446,664.6825000061654,True,False
14,2,191.37242240000342,circle,"(-480.0, -270.0)",0,680.6954999919981,680.6828999979189,True,False
14,2,191.38915240000642,circle,"(-480.0, -270.0)",0,697.4254999950062,697.412900000927,True,False
14,2,191.40618659999745,circle,"(-480.0, -270.0)",0,714.4596999860369,714.4470999919577,True,False
14,2,191.42432080001163,circle,"(-480.0, -270.0)",0,732.5939000002109,732.5813000061316,True,False
14,2,191.4406980000058,circle,"(-480.0, -270.0)",0,748.9710999943782,748.958500000299,True,False
14,2,191.45748959999764,circle,"(-480.0, -270.0)",0,765.7626999862259,765.7500999921467,True,False
14,2,191.47339530001045,circle,"(-480.0, -270.0)",0,781.6683999990346,781.6558000049554,True,False
14,2,191.4898233999993,circle,"(-480.0, -270.0)",0,798.0964999878779,798.0838999937987,True,False
14,2,191.50590940000257,circle,"(-480.0, -270.0)",0,814.1824999911478,814.1698999970686,True,False
14,2,191.52255930000683,circle,"(-480.0, -270.0)",0,830.8323999954155,830.8198000013363,True,False
14,2,191.53912490000948,circle,"(-480.0, -270.0)",0,847.3979999980656,847.3854000039864,True,False
14,2,191.55629629999748,circle,"(-480.0, -270.0)",0,864.5693999860669,864.5567999919876,True,False
14,2,191.57301800001005,circle,"(-480.0, -270.0)",0,881.2910999986343,881.2785000045551,True,False
14,2,191.5890783000068,circle,"(-480.0, -270.0)",0,897.3513999953866,897.3388000013074,True,False
14,2,191.60683750000317,circle,"(-480.0, -270.0)",0,915.110599991749,915.0979999976698,True,False
14,2,191.6232747000031,circle,"(-480.0, -270.0)",0,931.5477999916766,931.5351999975974,True,False
14,2,191.6397345000005,circle,"(-480.0, -270.0)",0,948.0075999890687,947.9949999949895,True,False
14,2,191.65647329999774,circle,"(-480.0, -270.0)",0,964.7463999863248,964.7337999922456,True,False
14,2,191.6737501000025,circle,"(-480.0, -270.0)",0,982.0231999910902,982.010599997011,True,False
14,2,191.6901860000071,circle,"(-480.0, -270.0)",0,998.4590999956708,998.4465000015916,True,False
14,2,191.70700170000782,circle,"(-480.0, -270.0)",0,1015.2747999964049,1015.2622000023257,True,False
14,2,191.72244409999985,circle,"(-480.0, -270.0)",0,1030.7171999884304,1030.7045999943512,True,False
14,2,191.73880950000603,circle,"(-480.0, -270.0)",0,1047.08259999461,1047.0700000005309,True,False
14,2,191.75558009999804,circle,"(-480.0, -270.0)",0,1063.8531999866245,1063.8405999925453,True,False
14,2,191.77265450000414,circle,"(-480.0, -270.0)",0,1080.9275999927195,1080.9149999986403,True,False
14,2,191.7890105999977,circle,"(-480.0, -270.0)",0,1097.283699986292,1097.2710999922128,True,False
14,2,191.8060114000109,circle,"(-480.0, -270.0)",0,1114.284499999485,1114.2719000054058,True,False
14,2,191.82273970000097,circle,"(-480.0, -270.0)",0,1131.0127999895485,1131.0001999954693,True,False
14,2,191.83917120000115,circle,"(-480.0, -270.0)",0,1147.4442999897292,1147.43169999565,True,False
14,2,191.85577080000076,circle,"(-480.0, -270.0)",0,1164.0438999893377,1164.0312999952585,True,False
14,2,191.87243430000672,circle,"(-480.0, -270.0)",0,1180.707399995299,1180.6948000012198,True,False
14,2,191.8896117000113,circle,"(-480.0, -270.0)",0,1197.8847999998834,1197.8722000058042,True,False
14,2,191.9066171000013,circle,"(-480.0, -270.0)",0,1214.8901999898953,1214.8775999958161,True,False
14,2,191.9229997000075,circle,"(-480.0, -270.0)",0,1231.272799996077,1231.2602000019979,True,False
14,2,191.9395014000038,circle,"(-480.0, -270.0)",0,1247.7744999923743,1247.7618999982951,True,False
14,2,191.95651879999787,circle,"(-480.0, -270.0)",0,1264.7918999864487,1264.7792999923695,True,False
14,2,191.97223280000617,circle,"(-480.0, -270.0)",0,1280.5058999947505,1280.4933000006713,True,False
14,2,191.98911960000987,circle,"(-480.0, -270.0)",0,1297.3926999984542,1297.380100004375,True,False
14,2,192.0062528999988,circle,"(-480.0, -270.0)",0,1314.5259999873815,1314.5133999933023,True,False
14,2,192.02252790000057,circle,"(-480.0, -270.0)",0,1330.800999989151,1330.7883999950718,True,False
14,2,192.0394121999998,circle,"(-480.0, -270.0)",0,1347.6852999883704,1347.6726999942912,True,False
14,2,192.05616069999814,circle,"(-480.0, -270.0)",0,1364.4337999867275,1364.4211999926483,True,False
14,2,192.07239370000025,circle,"(-480.0, -270.0)",0,1380.6667999888305,1380.6541999947513,True,False
14,2,192.08920180000132,circle,"(-480.0, -270.0)",0,1397.474899989902,1397.4622999958228,True,False
14,2,192.10541530000046,circle,"(-480.0, -270.0)",0,1413.6883999890415,1413.6757999949623,True,False
14,2,192.1224254000117,circle,"(-480.0, -270.0)",0,1430.6985000002896,1430.6859000062104,True,False
14,2,192.1396037000086,circle,"(-480.0, -270.0)",0,1447.876799997175,1447.864200003096,True,False
14,2,192.15618710000126,circle,"(-480.0, -270.0)",0,1464.460199989844,1464.447599995765,True,False
14,2,192.17303790000733,circle,"(-480.0, -270.0)",0,1481.3109999959124,1481.2984000018332,True,False
14,2,192.18964520000736,circle,"(-480.0, -270.0)",0,1497.9182999959448,1497.9057000018656,True,False
14,2,192.2061207000079,circle,"(-480.0, -270.0)",0,1514.3937999964692,1514.38120000239,True,False
14,2,192.22373520000838,circle,"(-480.0, -270.0)",0,1532.00829999696,1531.9957000028808,True,False
14,2,192.2386763000104,circle,"(-480.0, -270.0)",0,1546.9493999989936,1546.9368000049144,True,False
14,2,192.25649640000483,circle,"(-480.0, -270.0)",0,1564.7694999934174,1564.7568999993382,True,False
14,2,192.27381400000013,circle,"(-480.0, -270.0)",0,1582.087099988712,1582.0744999946328,True,False
14,2,192.28978000000643,circle,"(-480.0, -270.0)",0,1598.0530999950133,1598.0405000009341,True,False
14,2,192.30642850000004,circle,"(-480.0, -270.0)",0,1614.7015999886207,1614.6889999945415,True,False
14,2,192.32244689999789,circle,"(-480.0, -270.0)",0,1630.7199999864679,1630.7073999923887,True,False
14,2,192.3387650000077,circle,"(-480.0, -270.0)",0,1647.03809999628,1647.0255000022007,True,False
14,2,192.35530049999943,circle,"(-480.0, -270.0)",0,1663.5735999880126,1663.5609999939334,True,False
14,2,192.37229640000442,circle,"(-480.0, -270.0)",0,1680.5694999929983,1680.556899998919,True,False
14,2,192.38897840000573,circle,"(-480.0, -270.0)",0,1697.2514999943087,1697.2389000002295,True,False
14,2,192.40625770000042,circle,"(-480.0, -270.0)",0,1714.5307999890065,1714.5181999949273,True,False
14,2,192.423045500007,circle,"(-480.0, -270.0)",0,1731.318599995575,1731.3060000014957,True,False
14,2,192.43951280000329,circle,"(-480.0, -270.0)",0,1747.785899991868,1747.7732999977889,True,False
14,2,192.4560524999979,circle,"(-480.0, -270.0)",0,1764.3255999864778,1764.3129999923985,True,False
14,2,192.4728133000026,circle,"(-480.0, -270.0)",0,1781.0863999911817,1781.0737999971025,True,False
14,2,192.4885581999988,circle,"(-480.0, -270.0)",0,1796.8312999873888,1796.8186999933096,True,False
14,2,193.37137790000997,cross,"(480.0, -270.0)",265.7993000029819,2679.6509999985574,2679.638400004478,False,True
14,3,193.63953140001104,cross,"(480.0, -270.0)",265.40260000911076,2947.80449999962,268.15350000106264,True,False
14,3,193.6581761999987,cross,"(480.0, -270.0)",0,2966.449299987289,286.79829998873174,True,False
14,3,193.67193740000948,cross,"(480.0, -270.0)",0,2980.2104999980656,300.55949999950826,True,False
14,3,193.68844620000164,cross,"(480.0, -270.0)",0,2996.719299990218,317.06829999166075,True,False
14,3,193.70592659999966,cross,"(480.0, -270.0)",0,3014.1996999882394,334.54869998968206,True,False
14,3,193.72172149999824,cross,"(480.0, -270.0)",0,3029.9945999868214,350.34359998826403,True,False
14,3,193.73937170000863,cross,"(480.0, -270.0)",0,3047.644799997215,367.9937999986578,True,False
14,3,193.75585180000053,cross,"(480.0, -270.0)",0,3064.1248999891104,384.47389999055304,True,False
14,3,193.77231510001002,cross,"(480.0, -270.0)",0,3080.5881999986013,400.93720000004396,True,False
14,3,193.78935420000926,cross,"(480.0, -270.0)",0,3097.627299997839,417.97629999928176,True,False
14,3,193.8058871000103,cross,"(480.0, -270.0)",0,3114.160199998878,434.50920000032056,True,False
14,3,193.82194370000798,cross,"(480.0, -270.0)",0,3130.2167999965604,450.56579999800306,True,False
14,3,193.83916740000132,cross,"(480.0, -270.0)",0,3147.440499989898,467.78949999134056,True,False
14,3,193.8554038000002,cross,"(480.0, -270.0)",0,3163.6768999887863,484.02589999022894,True,False
14,3,193.87169770000037,cross,"(480.0, -270.0)",0,3179.9707999889506,500.3197999903932,True,False
14,3,193.88869430001068,cross,"(480.0, -270.0)",0,3196.9673999992665,517.3164000007091,True,False
14,3,193.90536200000497,cross,"(480.0, -270.0)",0,3213.635099993553,533.9840999949956,True,False
14,3,193.9216185999976,cross,"(480.0, -270.0)",0,3229.891699986183,550.2406999876257,True,False
14,3,193.93887290000566,cross,"(480.0, -270.0)",0,3247.1459999942454,567.494999995688,True,False
14,3,193.95602100000542,cross,"(480.0, -270.0)",0,3264.294099994004,584.6430999954464,True,False
14,3,193.97244569999748,cross,"(480.0, -270.0)",0,3280.7187999860616,601.0677999875043,True,False
14,3,193.98913800000446,cross,"(480.0, -270.0)",0,3297.4110999930417,617.7600999944843,True,False
14,3,194.00590200000443,cross,"(480.0, -270.0)",0,3314.175099993008,634.5240999944508,True,False
14,3,194.02212740000687,cross,"(480.0, -270.0)",0,3330.4004999954486,650.7494999968912,True,False
14,3,194.03929190000053,cross,"(480.0, -270.0)",0,3347.5649999891175,667.9139999905601,True,False
14,3,194.05871900000784,cross,"(480.0, -270.0)",0,3366.9920999964233,687.341099997866,True,False
14,3,194.07154930000252,cross,"(480.0, -270.0)",0,3379.822399991099,700.1713999925414,True,False
14,3,194.0888233000005,cross,"(480.0, -270.0)",0,3397.0963999890955,717.4453999905381,True,False
14,3,194.10515460000897,cross,"(480.0, -270.0)",0,3413.4276999975555,733.7766999989981,True,False
14,3,194.12187699999777,cross,"(480.0, -270.0)",0,3430.1500999863492,750.4990999877919,True,False
14,3,194.13822300000174,cross,"(480.0, -270.0)",0,3446.496099990327,766.8450999917695,True,False
14,3,194.155233700003,cross,"(480.0, -270.0)",0,3463.506799991592,783.8557999930345,True,False
14,3,194.17095670000708,cross,"(480.0, -270.0)",0,3479.2297999956645,799.5787999971071,True,False
14,3,194.18926600000123,cross,"(480.0, -270.0)",0,3497.539099989808,817.8880999912508,True,False
14,3,194.20584249999956,cross,"(480.0, -270.0)",0,3514.115599988145,834.4645999895874,True,False
14,3,194.22229460001108,cross,"(480.0, -270.0)",0,3530.567699999665,850.9167000011075,True,False
14,3,194.2389625000069,cross,"(480.0, -270.0)",0,3547.2355999954743,867.584599996917,True,False
14,3,194.25562360000913,cross,"(480.0, -270.0)",0,3563.896699997713,884.2456999991555,True,False
14,3,194.2716303000052,cross,"(480.0, -270.0)",0,3579.903399993782,900.2523999952246,True,False
14,3,194.28917460000957,cross,"(480.0, -270.0)",0,3597.447699998156,917.7966999995988,True,False
14,3,194.30485130001034,cross,"(480.0, -270.0)",0,3613.1243999989238,933.4734000003664,True,False
14,3,194.32198510000308,cross,"(480.0, -270.0)",0,3630.2581999916583,950.607199993101,True,False
14,3,194.33812120000948,cross,"(480.0, -270.0)",0,3646.3942999980645,966.7432999995071,True,False
14,3,194.35513870000432,cross,"(480.0, -270.0)",0,3663.4117999929003,983.760799994343,True,False
14,3,194.37161670000933,cross,"(480.0, -270.0)",0,3679.889799997909,1000.2387999993516,True,False
14,3,194.38836290000472,cross,"(480.0, -270.0)",0,3696.6359999933047,1016.9849999947473,True,False
14,3,194.40479210000194,cross,"(480.0, -270.0)",0,3713.065199990524,1033.4141999919666,True,False
14,3,194.42248269999982,cross,"(480.0, -270.0)",0,3730.755799988401,1051.1047999898437,True,False
14,3,194.4388423000055,cross,"(480.0, -270.0)",0,3747.1153999940725,1067.4643999955151,True,False
14,3,194.4557638999977,cross,"(480.0, -270.0)",0,3764.036999986274,1084.3859999877168,True,False
14,3,194.4724520000018,cross,"(480.0, -270.0)",0,3780.725099990377,1101.0740999918198,True,False
14,3,194.48861260000558,cross,"(480.0, -270.0)",0,3796.8856999941636,1117.2346999956062,True,False
14,3,194.5054497000092,cross,"(480.0, -270.0)",0,3813.7227999977767,1134.0717999992194,True,False
14,3,194.5223321000085,cross,"(480.0, -270.0)",0,3830.6051999970805,1150.954199998523,True,False
14,3,194.53952469999786,cross,"(480.0, -270.0)",0,3847.797799986438,1168.1467999878805,True,False
14,3,194.5546839000017,cross,"(480.0, -270.0)",0,3862.956999990274,1183.3059999917168,True,False
14,3,194.57251280000492,cross,"(480.0, -270.0)",0,3880.785899993498,1201.1348999949405,True,False
14,3,194.58799990000261,cross,"(480.0, -270.0)",0,3896.272999991197,1216.6219999926398,True,False
14,3,194.60550440000952,cross,"(480.0, -270.0)",0,3913.7774999981048,1234.1264999995474,True,False
14,3,194.62071800000558,cross,"(480.0, -270.0)",0,3928.991099994164,1249.3400999956066,True,False
14,3,194.63884650000546,cross,"(480.0, -270.0)",0,3947.119599994039,1267.4685999954818,True,False
14,3,194.65510650000942,cross,"(480.0, -270.0)",0,3963.3795999980066,1283.7285999994492,True,False
14,3,194.67073209999944,cross,"(480.0, -270.0)",0,3979.0051999880234,1299.354199989466,True,False
14,3,194.69432830000005,cross,"(480.0, -270.0)",0,4002.6013999886345,1322.9503999900771,True,False
14,3,194.7071980000037,cross,"(480.0, -270.0)",0,4015.4710999922827,1335.8200999937253,True,False
14,3,194.72202000000107,cross,"(480.0, -270.0)",0,4030.293099989649,1350.6420999910915,True,False
14,3,194.73884380000527,cross,"(480.0, -270.0)",0,4047.1168999938527,1367.4658999952953,True,False
14,3,194.7559586999996,cross,"(480.0, -270.0)",0,4064.2317999881925,1384.5807999896351,True,False
14,3,194.7719894000038,cross,"(480.0, -270.0)",0,4080.2624999923864,1400.611499993829,True,False
14,3,194.78878040000563,cross,"(480.0, -270.0)",0,4097.053499994217,1417.40249999566,True,False
14,3,194.80468719999772,cross,"(480.0, -270.0)",0,4112.960299986298,1433.3092999877408,True,False
14,3,194.82134619999852,cross,"(480.0, -270.0)",0,4129.619299987098,1449.9682999885408,True,False
14,3,194.83861970000726,cross,"(480.0, -270.0)",0,4146.89279999584,1467.2417999972822,True,False
14,3,194.85497660000692,cross,"(480.0, -270.0)",0,4163.249699995504,1483.5986999969464,True,False
14,3,194.87085620001017,cross,"(480.0, -270.0)",0,4179.129299998749,1499.4783000001917,True,False
14,3,194.88838830000896,cross,"(480.0, -270.0)",0,4196.661399997538,1517.0103999989806,True,False
14,3,194.90481620001083,cross,"(480.0, -270.0)",0,4213.08929999941,1533.438300000853,True,False
14,3,194.92129410000052,cross,"(480.0, -270.0)",0,4229.567199989106,1549.9161999905482,True,False
14,3,194.93871490001038,cross,"(480.0, -270.0)",0,4246.987999998964,1567.337000000407,True,False
14,3,194.9555427000014,cross,"(480.0, -270.0)",0,4263.81579998997,1584.164799991413,True,False
14,3,194.9722053000005,cross,"(480.0, -270.0)",0,4280.478399989079,1600.8273999905214,True,False
14,3,194.98840519999794,cross,"(480.0, -270.0)",0,4296.6782999865245,1617.0272999879671,True,False
14,3,195.00530240000808,cross,"(480.0, -270.0)",0,4313.575499996659,1633.924499998102,True,False
14,3,195.02195270000084,cross,"(480.0, -270.0)",0,4330.225799989421,1650.5747999908635,True,False
14,3,195.03914380000788,cross,"(480.0, -270.0)",0,4347.41689999646,1667.765899997903,True,False
14,3,195.05462270000135,cross,"(480.0, -270.0)",0,4362.8957999899285,1683.244799991371,True,False
14,3,195.07125370000722,cross,"(480.0, -270.0)",0,4379.526799995801,1699.875799997244,True,False
14,3,195.08773030000157,cross,"(480.0, -270.0)",0,4396.00339999015,1716.3523999915924,True,False
14,3,195.10465930000646,cross,"(480.0, -270.0)",0,4412.932399995043,1733.2813999964856,True,False
14,3,195.1212632000097,cross,"(480.0, -270.0)",0,4429.53629999829,1749.8852999997325,True,False
14,3,195.13842909999948,cross,"(480.0, -270.0)",0,4446.702199988067,1767.0511999895098,True,False
14,3,195.15517260000343,cross,"(480.0, -270.0)",0,4463.445699992008,1783.7946999934502,True,False
14,3,196.8543406000099,circle,"(-480.0, -270.0)",250.3016000118805,6162.613699998474,3482.9626999999164,False,True
14,4,199.12072340000304,star,"(-480.0, 270.0)",266.6728000040166,8428.996499991626,2266.3827999931527,False,True
15,1,203.22196200001054,circle,"(-480.0, -270.0)",0,0.01170000177808106,0.01170000177808106,False,True
15,2,203.48528940000688,t,"(480.0, 270.0)",261.06699999945704,263.3390999981202,263.32739999634214,True,False
15,2,203.50729940000747,t,"(480.0, 270.0)",0,285.3490999987116,285.3373999969335,True,False
15,2,203.52091200000723,t,"(480.0, 270.0)",0,298.9616999984719,298.9499999966938,True,False
15,2,203.5361297000054,t,"(480.0, 270.0)",0,314.1793999966467,314.1676999948686,True,False
15,2,203.55221049999818,t,"(480.0, 270.0)",0,330.260199989425,330.24849998764694,True,False
15,2,203.56862190000538,t,"(480.0, 270.0)",0,346.67159999662545,346.65989999484736,True,False
15,2,203.58562979999988,t,"(480.0, 270.0)",0,363.6794999911217,363.6677999893436,True,False
15,2,203.60237860000052,t,"(480.0, 270.0)",0,380.4282999917632,380.4165999899851,True,False
15,2,203.62072679999983,t,"(480.0, 270.0)",0,398.77649999107234,398.76479998929426,True,False
15,2,203.63616020001064,t,"(480.0, 270.0)",0,414.20990000187885,414.19820000010077,True,False
15,2,203.65271010001015,t,"(480.0, 270.0)",0,430.7598000013968,430.7480999996187,True,False
15,2,203.6691611999995,t,"(480.0, 270.0)",0,447.2108999907505,447.1991999889724,True,False
15,2,203.6858923000109,t,"(480.0, 270.0)",0,463.9420000021346,463.9303000003565,True,False
15,2,203.70246190000034,t,"(480.0, 270.0)",0,480.511599991587,480.4998999898089,True,False
15,2,203.71900560001086,t,"(480.0, 270.0)",0,497.05530000210274,497.04360000032466,True,False
15,2,203.7358355000033,t,"(480.0, 270.0)",0,513.8851999945473,513.8734999927692,True,False
15,2,203.75429650000297,t,"(480.0, 270.0)",0,532.3461999942083,532.3344999924302,True,False
15,2,203.77069630000915,t,"(480.0, 270.0)",0,548.7460000003921,548.734299998614,True,False
15,2,203.78743490000488,t,"(480.0, 270.0)",0,565.4845999961253,565.4728999943472,True,False
15,2,203.80403300000762,t,"(480.0, 270.0)",0,582.082699998864,582.0709999970859,True,False
15,2,203.820919100006,t,"(480.0, 270.0)",0,598.9687999972375,598.9570999954594,True,False
15,2,203.83785010001156,t,"(480.0, 270.0)",0,615.8998000028078,615.8881000010297,True,False
15,2,203.85350599999947,t,"(480.0, 270.0)",0,631.555699990713,631.543999988935,True,False
15,2,203.870244500009,t,"(480.0, 270.0)",0,648.2942000002367,648.2824999984587,True,False
15,2,203.8888677000068,t,"(480.0, 270.0)",0,666.9173999980558,666.9056999962777,True,False
15,2,203.90373140000156,t,"(480.0, 270.0)",0,681.7810999928042,681.7693999910261,True,False
15,2,203.91919220000273,t,"(480.0, 270.0)",0,697.2418999939691,697.230199992191,True,False
15,2,203.93645140000444,t,"(480.0, 270.0)",0,714.5010999956867,714.4893999939086,True,False
15,2,203.95234670001082,t,"(480.0, 270.0)",0,730.3964000020642,730.3847000002861,True,False
15,2,203.9689245000045,t,"(480.0, 270.0)",0,746.9741999957478,746.9624999939697,True,False
15,2,203.97224180000194,circle,"(-480.0, -270.0)",250.32150000333786,750.2914999931818,750.2797999914037,True,False
15,2,203.9910227000073,circle,"(-480.0, -270.0)",0,769.0723999985494,769.0606999967713,True,False
15,2,204.00418640000862,circle,"(-480.0, -270.0)",0,782.2360999998637,782.2243999980856,True,False
15,2,204.0208380999975,circle,"(-480.0, -270.0)",0,798.8877999887336,798.8760999869555,True,False
15,2,204.0372611000057,circle,"(-480.0, -270.0)",0,815.3107999969507,815.2990999951726,True,False
15,2,204.05377630000294,circle,"(-480.0, -270.0)",0,831.8259999941802,831.8142999924021,True,False
15,2,204.0703680000006,circle,"(-480.0, -270.0)",0,848.4176999918418,848.4059999900637,True,False
15,2,204.088305199999,circle,"(-480.0, -270.0)",0,866.354899990256,866.3431999884779,True,False
15,2,204.1098146000004,circle,"(-480.0, -270.0)",0,887.8642999916337,887.8525999898557,True,False
15,2,204.12455870000122,circle,"(-480.0, -270.0)",0,902.6083999924595,902.5966999906814,True,False
15,2,204.13712189999933,circle,"(-480.0, -270.0)",0,915.1715999905718,915.1598999887938,True,False
15,2,204.15244020000682,circle,"(-480.0, -270.0)",0,930.4898999980651,930.478199996287,True,False
15,2,204.16889090000768,circle,"(-480.0, -270.0)",0,946.9405999989249,946.9288999971468,True,False
15,2,204.1860405000043,circle,"(-480.0, -270.0)",0,964.0901999955531,964.078499993775,True,False
15,2,204.20305660000304,circle,"(-480.0, -270.0)",0,981.1062999942806,981.0945999925025,True,False
15,2,204.2207100000087,circle,"(-480.0, -270.0)",0,998.7596999999369,998.7479999981588,True,False
15,2,204.23717490000126,circle,"(-480.0, -270.0)",0,1015.2245999925071,1015.212899990729,True,False
15,2,204.25418110001192,circle,"(-480.0, -270.0)",0,1032.2308000031626,1032.2191000013845,True,False
15,2,204.27056030000676,circle,"(-480.0, -270.0)",0,1048.609999998007,1048.598299996229,True,False
15,2,204.28686340000422,circle,"(-480.0, -270.0)",0,1064.913099995465,1064.901399993687,True,False
15,2,204.3037661999988,circle,"(-480.0, -270.0)",0,1081.8158999900334,1081.8041999882553,True,False
15,2,204.3204029000044,circle,"(-480.0, -270.0)",0,1098.4525999956531,1098.440899993875,True,False
15,2,204.3358653000032,circle,"(-480.0, -270.0)",0,1113.9149999944493,1113.9032999926712,True,False
15,2,204.35238290000416,circle,"(-480.0, -270.0)",0,1130.4325999954017,1130.4208999936236,True,False
15,2,204.36859050000203,circle,"(-480.0, -270.0)",0,1146.6401999932714,1146.6284999914933,True,False
15,2,204.38606630000868,circle,"(-480.0, -270.0)",0,1164.1159999999218,1164.1042999981437,True,False
15,2,204.4024716999993,circle,"(-480.0, -270.0)",0,1180.521399990539,1180.509699988761,True,False
15,2,204.41944320000766,circle,"(-480.0, -270.0)",0,1197.492899998906,1197.481199997128,True,False
15,2,204.43732420000015,circle,"(-480.0, -270.0)",0,1215.3738999913912,1215.3621999896131,True,False
15,2,204.45402780000586,circle,"(-480.0, -270.0)",0,1232.0774999971036,1232.0657999953255,True,False
15,2,204.47058110000216,circle,"(-480.0, -270.0)",0,1248.630799993407,1248.619099991629,True,False
15,2,204.48704110000108,circle,"(-480.0, -270.0)",0,1265.090799992322,1265.079099990544,True,False
15,2,204.50357490000897,circle,"(-480.0, -270.0)",0,1281.6246000002138,1281.6128999984358,True,False
15,2,204.5207483999984,circle,"(-480.0, -270.0)",0,1298.7980999896536,1298.7863999878755,True,False
15,2,204.53644760001043,circle,"(-480.0, -270.0)",0,1314.4973000016762,1314.485599999898,True,False
15,2,204.55253650000668,circle,"(-480.0, -270.0)",0,1330.5861999979243,1330.5744999961462,True,False
15,2,204.56864350000978,circle,"(-480.0, -270.0)",0,1346.6932000010274,1346.6814999992494,True,False
15,2,204.5855692000041,circle,"(-480.0, -270.0)",0,1363.6188999953447,1363.6071999935666,True,False
15,2,204.60229380000965,circle,"(-480.0, -270.0)",0,1380.3435000008903,1380.3317999991123,True,False
15,2,204.62065789999906,circle,"(-480.0, -270.0)",0,1398.7075999903027,1398.6958999885246,True,False
15,2,204.6372401000117,circle,"(-480.0, -270.0)",0,1415.2898000029381,1415.27810000116,True,False
15,2,204.65397650000523,circle,"(-480.0, -270.0)",0,1432.0261999964714,1432.0144999946933,True,False
15,2,204.66974110000592,circle,"(-480.0, -270.0)",0,1447.7907999971649,1447.7790999953868,True,False
15,2,204.68676670000423,circle,"(-480.0, -270.0)",0,1464.8163999954704,1464.8046999936923,True,False
15,2,204.70994159999827,circle,"(-480.0, -270.0)",0,1487.9912999895168,1487.9795999877388,True,False
15,2,204.72458460000053,circle,"(-480.0, -270.0)",0,1502.6342999917688,1502.6225999899907,True,False
15,2,204.73623390001012,circle,"(-480.0, -270.0)",0,1514.283600001363,1514.271899999585,True,False
15,2,204.75348040000245,circle,"(-480.0, -270.0)",0,1531.530099993688,1531.51839999191,True,False
15,2,204.76911069999915,circle,"(-480.0, -270.0)",0,1547.1603999903891,1547.148699988611,True,False
15,2,204.7858358000085,circle,"(-480.0, -270.0)",0,1563.885499999742,1563.873799997964,True,False
15,2,204.8020494000084,circle,"(-480.0, -270.0)",0,1580.099099999643,1580.0873999978648,True,False
15,2,204.82062790000055,circle,"(-480.0, -270.0)",0,1598.6775999917882,1598.66589999001,True,False
15,2,204.83546980000392,circle,"(-480.0, -270.0)",0,1613.5194999951636,1613.5077999933856,True,False
15,2,204.85283200000413,circle,"(-480.0, -270.0)",0,1630.8816999953706,1630.8699999935925,True,False
15,2,204.86926490000042,circle,"(-480.0, -270.0)",0,1647.3145999916596,1647.3028999898816,True,False
15,2,204.88682140001038,circle,"(-480.0, -270.0)",0,1664.8711000016192,1664.8593999998411,True,False
15,2,204.90388150000945,circle,"(-480.0, -270.0)",0,1681.9312000006903,1681.9194999989122,True,False
15,2,204.91953210000065,circle,"(-480.0, -270.0)",0,1697.5817999918945,1697.5700999901164,True,False
15,2,204.93661540000176,circle,"(-480.0, -270.0)",0,1714.6650999929989,1714.6533999912208,True,False
15,2,204.9537541000027,circle,"(-480.0, -270.0)",0,1731.8037999939406,1731.7920999921625,True,False
15,2,204.96967810000933,circle,"(-480.0, -270.0)",0,1747.7278000005754,1747.7160999987973,True,False
15,2,204.98638909999863,circle,"(-480.0, -270.0)",0,1764.4387999898754,1764.4270999880973,True,False
15,2,205.0023186000035,circle,"(-480.0, -270.0)",0,1780.3682999947341,1780.356599992956,True,False
15,2,205.20196380000561,star,"(-480.0, 270.0)",263.4313000016846,1980.0134999968577,1980.0017999950796,False,True
15,3,205.47037130000535,star,"(-480.0, 270.0)",264.3136999977287,2248.420999996597,268.40749999973923,True,False
15,3,205.48868570000923,star,"(-480.0, 270.0)",0,2266.7354000004707,286.721900003613,True,False
15,3,205.50183940000716,star,"(-480.0, 270.0)",0,2279.8890999983996,299.8756000015419,True,False
15,3,205.5184855000116,star,"(-480.0, 270.0)",0,2296.535200002836,316.52170000597835,True,False
15,3,205.53561980000813,star,"(-480.0, 270.0)",0,2313.669499999378,333.65600000252016,True,False
15,3,205.55254070000956,star,"(-480.0, 270.0)",0,2330.5904000008013,350.5769000039436,True,False
15,3,205.5693564000103,star,"(-480.0, 270.0)",0,2347.4061000015354,367.39260000467766,True,False
15,3,205.5860232999985,star,"(-480.0, 270.0)",0,2364.0729999897303,384.0594999928726,True,False
15,3,205.60298480000347,star,"(-480.0, 270.0)",0,2381.034499994712,401.02099999785423,True,False
15,3,205.61926620001032,star,"(-480.0, 270.0)",0,2397.3159000015585,417.30240000470076,True,False
15,3,205.6361642999982,star,"(-480.0, 270.0)",0,2414.2139999894425,434.2004999925848,True,False
15,3,205.65299129999767,star,"(-480.0, 270.0)",0,2431.040999988909,451.02749999205116,True,False
15,3,205.66846110000915,star,"(-480.0, 270.0)",0,2446.5108000003966,466.49730000353884,True,False
15,3,205.68521770001098,star,"(-480.0, 270.0)",0,2463.2674000022234,483.2539000053657,True,False
15,3,205.70207220000157,star,"(-480.0, 270.0)",0,2480.1218999928096,500.1083999959519,True,False
15,3,205.71862600000168,star,"(-480.0, 270.0)",0,2496.6756999929203,516.6621999960626,True,False
15,3,205.73517530001118,star,"(-480.0, 270.0)",0,2513.2250000024214,533.2115000055637,True,False
15,3,205.75186550000217,star,"(-480.0, 270.0)",0,2529.915199993411,549.9016999965534,True,False
15,3,205.76828699999896,star,"(-480.0, 270.0)",0,2546.3366999902064,566.3231999933487,True,False
15,3,205.78542900001048,star,"(-480.0, 270.0)",0,2563.478700001724,583.4652000048663,True,False
15,3,205.80185540000093,star,"(-480.0, 270.0)",0,2579.9050999921747,599.8915999953169,True,False
15,3,205.8188155000098,star,"(-480.0, 270.0)",0,2596.865200001048,616.8517000041902,True,False
15,3,205.83574120000412,star,"(-480.0, 270.0)",0,2613.790899995365,633.7773999985075,True,False
15,3,205.8526361999975,star,"(-480.0, 270.0)",0,2630.685899988748,650.6723999918904,True,False
15,3,205.8696076000051,star,"(-480.0, 270.0)",0,2647.6572999963537,667.643799999496,True,False
15,3,205.88576080001076,star,"(-480.0, 270.0)",0,2663.8105000020005,683.7970000051428,True,False
15,3,205.90244730000268,star,"(-480.0, 270.0)",0,2680.4969999939203,700.4834999970626,True,False
15,3,205.91840090000187,star,"(-480.0, 270.0)",0,2696.4505999931134,716.4370999962557,True,False
15,3,205.94226799999888,star,"(-480.0, 270.0)",0,2720.317699990119,740.3041999932611,True,False
15,3,205.9687047000043,star,"(-480.0, 270.0)",0,2746.7543999955524,766.7408999986947,True,False
15,3,205.98500470000727,star,"(-480.0, 270.0)",0,2763.0543999985093,783.0409000016516,True,False
15,3,206.00165070001094,star,"(-480.0, 270.0)",0,2779.7004000021843,799.6869000053266,True,False
15,3,206.02013770000485,star,"(-480.0, 270.0)",0,2798.1873999960953,818.1738999992376,True,False
15,3,206.03559310000855,star,"(-480.0, 270.0)",0,2813.6427999997977,833.62930000294,True,False
15,3,206.05250030000752,star,"(-480.0, 270.0)",0,2830.549999998766,850.5365000019083,True,False
15,3,206.06967000001168,star,"(-480.0, 270.0)",0,2847.7197000029264,867.7062000060687,True,False
15,3,206.08584080000583,star,"(-480.0, 270.0)",0,2863.890499997069,883.8770000002114,True,False
15,3,206.1026944000041,star,"(-480.0, 270.0)",0,2880.744099995354,900.7305999984965,True,False
15,3,206.11913260001165,star,"(-480.0, 270.0)",0,2897.182300002896,917.1688000060385,True,False
15,3,206.1366318000073,star,"(-480.0, 270.0)",0,2914.681499998551,934.6680000016931,True,False
15,3,206.15252080000937,star,"(-480.0, 270.0)",0,2930.570500000613,950.5570000037551,True,False
15,3,206.16949580000073,star,"(-480.0, 270.0)",0,2947.545499991975,967.5319999951171,True,False
15,3,206.18531200000143,star,"(-480.0, 270.0)",0,2963.3616999926744,983.3481999958167,True,False
15,3,206.20211470000504,star,"(-480.0, 270.0)",0,2980.1643999962835,1000.1508999994257,True,False
15,3,206.22170600001118,star,"(-480.0, 270.0)",0,2999.7557000024244,1019.7422000055667,True,False
15,3,206.23509000000195,star,"(-480.0, 270.0)",0,3013.1396999931894,1033.1261999963317,True,False
15,3,206.25208510000084,star,"(-480.0, 270.0)",0,3030.1347999920836,1050.1212999952259,True,False
15,3,206.2682005000097,star,"(-480.0, 270.0)",0,3046.250200000941,1066.236700004083,True,False
15,3,206.28521830000682,star,"(-480.0, 270.0)",0,3063.267999998061,1083.2545000012033,True,False
15,3,206.30326600000262,star,"(-480.0, 270.0)",0,3081.3156999938656,1101.3021999970078,True,False
15,3,206.31940430001123,star,"(-480.0, 270.0)",0,3097.4540000024717,1117.440500005614,True,False
15,3,206.3362485000107,star,"(-480.0, 270.0)",0,3114.29820000194,1134.2847000050824,True,False
15,3,206.35322299999825,star,"(-480.0, 270.0)",0,3131.272699989495,1151.2591999926371,True,False
15,3,206.3697955000098,star,"(-480.0, 270.0)",0,3147.8452000010293,1167.8317000041716,True,False
15,3,206.38740980000875,star,"(-480.0, 270.0)",0,3165.459499999997,1185.4460000031395,True,False
15,3,206.4028732000006,star,"(-480.0, 270.0)",0,3180.922899991856,1200.9093999949982,True,False
15,3,206.4205365000089,star,"(-480.0, 270.0)",0,3198.586200000136,1218.5727000032784,True,False
15,3,206.43527890001133,star,"(-480.0, 270.0)",0,3213.328600002569,1233.3151000057114,True,False
15,3,206.45222649999778,star,"(-480.0, 270.0)",0,3230.276199989021,1250.262699992163,True,False
15,3,206.46808760000567,star,"(-480.0, 270.0)",0,3246.137299996917,1266.1238000000594,True,False
15,3,206.48820920000435,star,"(-480.0, 270.0)",0,3266.2588999955915,1286.2453999987338,True,False
15,3,206.5028597000055,star,"(-480.0, 270.0)",0,3280.9093999967445,1300.8958999998868,True,False
15,3,206.51879690001078,star,"(-480.0, 270.0)",0,3296.846600002027,1316.8331000051694,True,False
15,3,206.53650980000384,star,"(-480.0, 270.0)",0,3314.5594999950845,1334.5459999982268,True,False
15,3,206.5533179000049,star,"(-480.0, 270.0)",0,3331.367599996156,1351.3540999992983,True,False
15,3,206.56979580000916,star,"(-480.0, 270.0)",0,3347.8455000004033,1367.8320000035455,True,False
15,3,206.586544100006,star,"(-480.0, 270.0)",0,3364.5937999972375,1384.5803000003798,True,False
15,3,206.6030180000089,star,"(-480.0, 270.0)",0,3381.0677000001306,1401.0542000032729,True,False
15,3,206.61934509999992,star,"(-480.0, 270.0)",0,3397.3947999911616,1417.3812999943038,True,False
15,3,206.63590130000375,star,"(-480.0, 270.0)",0,3413.950999994995,1433.9374999981374,True,False
15,3,206.6523018000007,star,"(-480.0, 270.0)",0,3430.351499991957,1450.3379999950994,True,False
15,3,206.6689602999977,star,"(-480.0, 270.0)",0,3447.00999998895,1466.9964999920921,True,False
15,3,206.68486930000654,star,"(-480.0, 270.0)",0,3462.9189999977825,1482.9055000009248,True,False
15,3,206.701635800011,star,"(-480.0, 270.0)",0,3479.6855000022333,1499.6720000053756,True,False
15,3,206.71806270000525,star,"(-480.0, 270.0)",0,3496.112399996491,1516.0988999996334,True,False
15,3,206.73491270000522,star,"(-480.0, 270.0)",0,3512.962399996468,1532.9488999996101,True,False
15,3,206.75153000000864,star,"(-480.0, 270.0)",0,3529.5796999998856,1549.566200003028,True,False
15,3,206.76795259999926,star,"(-480.0, 270.0)",0,3546.002299990505,1565.9887999936473,True,False
15,3,206.7848079000105,star,"(-480.0, 270.0)",0,3562.8576000017347,1582.844100004877,True,False
15,3,206.803184400007,star,"(-480.0, 270.0)",0,3581.2340999982553,1601.2206000013975,True,False
15,3,206.81904190000205,star,"(-480.0, 270.0)",0,3597.0915999932913,1617.0780999964336,True,False
15,3,206.83631910000986,star,"(-480.0, 270.0)",0,3614.3688000011025,1634.3553000042448,True,False
15,3,206.85372860000643,star,"(-480.0, 270.0)",0,3631.778299997677,1651.7648000008194,True,False
15,3,206.86988350001047,star,"(-480.0, 270.0)",0,3647.9332000017166,1667.919700004859,True,False
15,3,206.88584370000171,star,"(-480.0, 270.0)",0,3663.8933999929577,1683.8798999961,True,False
15,3,206.90259920000972,star,"(-480.0, 270.0)",0,3680.6489000009606,1700.6354000041028,True,False
15,3,206.9193251000106,star,"(-480.0, 270.0)",0,3697.374800001853,1717.3613000049954,True,False
15,3,206.93487140000798,star,"(-480.0, 270.0)",0,3712.921099999221,1732.9076000023633,True,False
15,3,206.95146419999946,star,"(-480.0, 270.0)",0,3729.5138999907067,1749.500399993849,True,False
15,3,206.96785280000768,star,"(-480.0, 270.0)",0,3745.9024999989197,1765.889000002062,True,False
15,3,206.98495959999855,star,"(-480.0, 270.0)",0,3763.0092999897897,1782.995799992932,True,False
15,3,207.00151810000534,star,"(-480.0, 270.0)",0,3779.5677999965847,1799.554299999727,True,False
15,3,208.30140209999809,t,"(480.0, 270.0)",250.70719998620916,5079.451799989329,3099.438299992471,False,True
15,4,210.76775300000736,circle,"(-480.0, -270.0)",265.95490000909194,7545.802699998603,2466.3509000092745,False,True
16,1,214.8699831999984,circle,"(-480.0, -270.0)",0,0.018799997633323073,0.018799997633323073,False,True
16,2,215.81514920000336,circle,"(-480.0, -270.0)",266.08760000090115,945.1848000026075,945.1660000049742,True,False
16,2,215.83516500001133,circle,"(-480.0, -270.0)",0,965.2006000105757,965.1818000129424,True,False
16,2,215.84755270001187,circle,"(-480.0, -270.0)",0,977.5883000111207,977.5695000134874,True,False
16,2,215.86513400000695,circle,"(-480.0, -270.0)",0,995.1696000061929,995.1508000085596,True,False
16,2,215.8818106000108,circle,"(-480.0, -270.0)",0,1011.8462000100408,1011.8274000124075,True,False
16,2,215.8976357000065,circle,"(-480.0, -270.0)",0,1027.6713000057498,1027.6525000081165,True,False
16,2,215.9146666000015,circle,"(-480.0, -270.0)",0,1044.7022000007564,1044.683400003123,True,False
16,2,215.93125429999782,circle,"(-480.0, -270.0)",0,1061.289899997064,1061.2710999994306,True,False
16,2,215.94791570000234,circle,"(-480.0, -270.0)",0,1077.9513000015868,1077.9325000039535,True,False
16,2,215.96432680000726,circle,"(-480.0, -270.0)",0,1094.3624000065029,1094.3436000088695,True,False
16,2,215.98116049999953,circle,"(-480.0, -270.0)",0,1111.1960999987787,1111.1773000011453,True,False
16,2,215.99760699999752,circle,"(-480.0, -270.0)",0,1127.6425999967614,1127.623799999128,True,False
16,2,216.01427850000618,circle,"(-480.0, -270.0)",0,1144.314100005431,1144.2953000077978,True,False
16,2,216.03172160001122,circle,"(-480.0, -270.0)",0,1161.7572000104701,1161.7384000128368,True,False
16,2,216.0484160000051,circle,"(-480.0, -270.0)",0,1178.4516000043368,1178.4328000067035,True,False
16,2,216.06501540000318,circle,"(-480.0, -270.0)",0,1195.0510000024224,1195.032200004789,True,False
16,2,216.08177650001016,circle,"(-480.0, -270.0)",0,1211.8121000094106,1211.7933000117773,True,False
16,2,216.0985412000009,circle,"(-480.0, -270.0)",0,1228.5768000001553,1228.558000002522,True,False
16,2,216.11509240001033,circle,"(-480.0, -270.0)",0,1245.1280000095721,1245.1092000119388,True,False
16,2,216.13177940000605,circle,"(-480.0, -270.0)",0,1261.8150000052992,1261.796200007666,True,False
16,2,216.14763700000185,circle,"(-480.0, -270.0)",0,1277.6726000010967,1277.6538000034634,True,False
16,2,216.16440320000402,circle,"(-480.0, -270.0)",0,1294.4388000032632,1294.4200000056298,True,False
16,2,216.1810234000004,circle,"(-480.0, -270.0)",0,1311.0589999996591,1311.0402000020258,True,False
16,2,216.19807980000041,circle,"(-480.0, -270.0)",0,1328.1153999996604,1328.0966000020271,True,False
16,2,216.21440310000617,circle,"(-480.0, -270.0)",0,1344.438700005412,1344.4199000077788,True,False
16,2,216.23109359999944,circle,"(-480.0, -270.0)",0,1361.129199998686,1361.1104000010528,True,False
16,2,216.24770089999947,circle,"(-480.0, -270.0)",0,1377.7364999987185,1377.7177000010852,True,False
16,2,216.26413740000862,circle,"(-480.0, -270.0)",0,1394.1730000078678,1394.1542000102345,True,False
16,2,216.2822612000018,circle,"(-480.0, -270.0)",0,1412.2968000010587,1412.2780000034254,True,False
16,2,216.29844660000526,circle,"(-480.0, -270.0)",0,1428.4822000045097,1428.4634000068763,True,False
16,2,216.3148446999985,circle,"(-480.0, -270.0)",0,1444.8802999977488,1444.8615000001155,True,False
16,2,216.33210080000572,circle,"(-480.0, -270.0)",0,1462.1364000049653,1462.117600007332,True,False
16,2,216.34987320000073,circle,"(-480.0, -270.0)",0,1479.9087999999756,1479.8900000023423,True,False
16,2,216.365369799998,circle,"(-480.0, -270.0)",0,1495.405399997253,1495.3865999996196,True,False
16,2,216.38173550000647,circle,"(-480.0, -270.0)",0,1511.771100005717,1511.7523000080837,True,False
16,2,216.39743330000783,circle,"(-480.0, -270.0)",0,1527.4689000070794,1527.450100009446,True,False
16,2,216.41459570000006,circle,"(-480.0, -270.0)",0,1544.6312999993097,1544.6125000016764,True,False
16,2,216.43133930000477,circle,"(-480.0, -270.0)",0,1561.3749000040116,1561.3561000063783,True,False
16,2,216.44770540000172,circle,"(-480.0, -270.0)",0,1577.7410000009695,1577.7222000033362,True,False
16,2,216.46443170000566,circle,"(-480.0, -270.0)",0,1594.4673000049079,1594.4485000072746,True,False
16,2,216.48086180000973,circle,"(-480.0, -270.0)",0,1610.8974000089802,1610.8786000113469,True,False
16,2,216.4975878999976,circle,"(-480.0, -270.0)",0,1627.6234999968437,1627.6046999992104,True,False
16,2,216.5139904000098,circle,"(-480.0, -270.0)",0,1644.0260000090348,1644.0072000114014,True,False
16,2,216.5315632999991,circle,"(-480.0, -270.0)",0,1661.5988999983529,1661.5801000007195,True,False
16,2,216.54844230000162,circle,"(-480.0, -270.0)",0,1678.4779000008712,1678.4591000032378,True,False
16,2,216.5648599999986,circle,"(-480.0, -270.0)",0,1694.8955999978352,1694.876800000202,True,False
16,2,216.58157760000904,circle,"(-480.0, -270.0)",0,1711.613200008287,1711.5944000106538,True,False
16,2,216.59821100000408,circle,"(-480.0, -270.0)",0,1728.246600003331,1728.2278000056976,True,False
16,2,216.61490159999812,circle,"(-480.0, -270.0)",0,1744.9371999973664,1744.918399999733,True,False
16,2,216.6306470999989,circle,"(-480.0, -270.0)",0,1760.6826999981422,1760.6639000005089,True,False
16,2,216.64717810000002,circle,"(-480.0, -270.0)",0,1777.2136999992654,1777.194900001632,True,False
16,2,217.78099260000454,star,"(-480.0, 270.0)",250.18449999333825,2911.028200003784,2911.009400006151,False,True
17,1,227.06319900001108,circle,"(-480.0, -270.0)",0,0.014900011592544615,0.014900011592544615,False,True
17,2,227.32832770000095,star,"(-480.0, 270.0)",263.02169999689795,265.14360000146553,265.128699989873,True,False
17,2,227.34821789999842,star,"(-480.0, 270.0)",0,285.03379999892786,285.0188999873353,True,False
17,2,227.36147660001006,star,"(-480.0, 270.0)",0,298.29250001057517,298.2775999989826,True,False
17,2,227.3772270000045,star,"(-480.0, 270.0)",0,314.04290000500623,314.0279999934137,True,False
17,2,227.39346380000643,star,"(-480.0, 270.0)",0,330.2797000069404,330.26479999534786,True,False
17,2,227.41058229999908,star,"(-480.0, 270.0)",0,347.39819999958854,347.383299987996,True,False
17,2,227.42746900000202,star,"(-480.0, 270.0)",0,364.2849000025308,364.26999999093823,True,False
17,2,227.44400460000907,star,"(-480.0, 270.0)",0,380.8205000095768,380.80559999798425,True,False
17,2,227.46104160000687,star,"(-480.0, 270.0)",0,397.8575000073761,397.84259999578353,True,False
17,2,227.4774574000039,star,"(-480.0, 270.0)",0,414.2733000044245,414.258399992832,True,False
17,2,227.49397989999852,star,"(-480.0, 270.0)",0,430.79579999903217,430.7808999874396,True,False
17,2,227.51066920001176,star,"(-480.0, 270.0)",0,447.4851000122726,447.47020000068005,True,False
17,2,227.52812840000843,star,"(-480.0, 270.0)",0,464.9443000089377,464.9293999973452,True,False
17,2,227.54456410001148,star,"(-480.0, 270.0)",0,481.38000001199543,481.3651000004029,True,False
17,2,227.56147380000039,star,"(-480.0, 270.0)",0,498.2897000008961,498.2747999893036,True,False
17,2,227.57825659999799,star,"(-480.0, 270.0)",0,515.0724999984959,515.0575999869034,True,False
17,2,227.594720100009,star,"(-480.0, 270.0)",0,531.5360000095097,531.5210999979172,True,False
17,2,227.61150800000178,star,"(-480.0, 270.0)",0,548.3239000022877,548.3089999906952,True,False
17,2,227.62718080000195,star,"(-480.0, 270.0)",0,563.9967000024626,563.9817999908701,True,False
17,2,227.64343219999864,star,"(-480.0, 270.0)",0,580.248099999153,580.2331999875605,True,False
17,2,227.6609032999986,star,"(-480.0, 270.0)",0,597.7191999991192,597.7042999875266,True,False
17,2,227.67735230000108,star,"(-480.0, 270.0)",0,614.1682000015862,614.1532999899937,True,False
17,2,227.6939446000033,star,"(-480.0, 270.0)",0,630.7605000038166,630.745599992224,True,False
17,2,227.6962724000041,circle,"(-480.0, -270.0)",250.51230000099167,633.0883000046015,633.0733999930089,True,False
17,2,227.7134503999987,circle,"(-480.0, -270.0)",0,650.2662999992026,650.2513999876101,True,False
17,2,227.7277238000097,circle,"(-480.0, -270.0)",0,664.5397000102093,664.5247999986168,True,False
17,2,227.74381870000798,circle,"(-480.0, -270.0)",0,680.6346000084886,680.6196999968961,True,False
17,2,227.7605401000037,circle,"(-480.0, -270.0)",0,697.3560000042198,697.3410999926273,True,False
17,2,227.7783380000037,circle,"(-480.0, -270.0)",0,715.1539000042249,715.1389999926323,True,False
17,2,227.794695900011,circle,"(-480.0, -270.0)",0,731.5118000115035,731.496899999911,True,False
17,2,227.81140180000511,circle,"(-480.0, -270.0)",0,748.2177000056254,748.2027999940328,True,False
17,2,227.8279668000032,circle,"(-480.0, -270.0)",0,764.7827000037069,764.7677999921143,True,False
17,2,227.84454669999832,circle,"(-480.0, -270.0)",0,781.362599998829,781.3476999872364,True,False
17,2,227.86136390001047,circle,"(-480.0, -270.0)",0,798.1798000109848,798.1648999993922,True,False
17,2,227.87778989999788,circle,"(-480.0, -270.0)",0,814.6057999983896,814.590899986797,True,False
17,2,227.8932574000064,circle,"(-480.0, -270.0)",0,830.0733000069158,830.0583999953233,True,False
17,2,227.9116262000025,circle,"(-480.0, -270.0)",0,848.4421000030125,848.4271999914199,True,False
17,2,227.9277446000051,circle,"(-480.0, -270.0)",0,864.5605000056094,864.5455999940168,True,False
17,2,227.94443600000523,circle,"(-480.0, -270.0)",0,881.2519000057364,881.2369999941438,True,False
17,2,227.96098300001177,circle,"(-480.0, -270.0)",0,897.7989000122761,897.7840000006836,True,False
17,2,227.97739260000526,circle,"(-480.0, -270.0)",0,914.2085000057705,914.1935999941779,True,False
17,2,227.99407919999794,circle,"(-480.0, -270.0)",0,930.8950999984518,930.8801999868592,True,False
17,2,228.01150810001127,circle,"(-480.0, -270.0)",0,948.3240000117803,948.3091000001878,True,False
17,2,228.02792350000527,circle,"(-480.0, -270.0)",0,964.739400005783,964.7244999941904,True,False
17,2,228.04452830000082,circle,"(-480.0, -270.0)",0,981.344200001331,981.3292999897385,True,False
17,2,228.0614182999998,circle,"(-480.0, -270.0)",0,998.2342000002973,998.2192999887047,True,False
17,2,228.07814230000076,circle,"(-480.0, -270.0)",0,1014.9582000012742,1014.9432999896817,True,False
17,2,228.0947337000107,circle,"(-480.0, -270.0)",0,1031.5496000112034,1031.534699999611,True,False
17,2,228.11183920000622,circle,"(-480.0, -270.0)",0,1048.6551000067266,1048.640199995134,True,False
17,2,228.1270177000115,circle,"(-480.0, -270.0)",0,1063.8336000120034,1063.818700000411,True,False
17,2,228.1432560000103,circle,"(-480.0, -270.0)",0,1080.0719000108074,1080.056999999215,True,False
17,2,228.16076930001145,circle,"(-480.0, -270.0)",0,1097.585200011963,1097.5703000003705,True,False
17,2,228.17751500000304,circle,"(-480.0, -270.0)",0,1114.3309000035515,1114.315999991959,True,False
17,2,228.1936668999988,circle,"(-480.0, -270.0)",0,1130.4827999992995,1130.467899987707,True,False
17,2,228.21105840000382,circle,"(-480.0, -270.0)",0,1147.8743000043323,1147.8593999927398,True,False
17,2,228.22742180000932,circle,"(-480.0, -270.0)",0,1164.237700009835,1164.2227999982424,True,False
17,2,228.24365699999908,circle,"(-480.0, -270.0)",0,1180.472899999586,1180.4579999879934,True,False
17,2,228.261308000001,circle,"(-480.0, -270.0)",0,1198.1239000015194,1198.1089999899268,True,False
17,2,228.27807230000326,circle,"(-480.0, -270.0)",0,1214.8882000037702,1214.8732999921776,True,False
17,2,228.29456049999862,circle,"(-480.0, -270.0)",0,1231.3763999991352,1231.3614999875426,True,False
17,2,228.31090770001174,circle,"(-480.0, -270.0)",0,1247.7236000122502,1247.7087000006577,True,False
17,2,228.32811550000042,circle,"(-480.0, -270.0)",0,1264.9314000009326,1264.91649998934,True,False
17,2,228.33016430000134,cross,"(480.0, -270.0)",250.1120999950217,1266.9802000018535,1266.965299990261,True,False
17,2,228.3458726000099,cross,"(480.0, -270.0)",0,1282.6885000104085,1282.673599998816,True,False
17,2,228.36114839999937,cross,"(480.0, -270.0)",0,1297.964299999876,1297.9493999882834,True,False
17,2,228.37688130000606,cross,"(480.0, -270.0)",0,1313.6972000065725,1313.68229999498,True,False
17,2,228.3938943000103,cross,"(480.0, -270.0)",0,1330.7102000107989,1330.6952999992063,True,False
17,2,228.41083690000232,cross,"(480.0, -270.0)",0,1347.6528000028338,1347.6378999912413,True,False
17,2,228.4275154000061,cross,"(480.0, -270.0)",0,1364.3313000065973,1364.3163999950048,True,False
17,2,228.443943700011,cross,"(480.0, -270.0)",0,1380.7596000115154,1380.744699999923,True,False
17,2,228.46084770000016,cross,"(480.0, -270.0)",0,1397.6636000006692,1397.6486999890767,True,False
17,2,228.47725960001117,cross,"(480.0, -270.0)",0,1414.075500011677,1414.0606000000844,True,False
17,2,228.49461020001036,cross,"(480.0, -270.0)",0,1431.4261000108672,1431.4111999992747,True,False
17,2,228.51132150000194,cross,"(480.0, -270.0)",0,1448.1374000024516,1448.122499990859,True,False
17,2,228.52792880000197,cross,"(480.0, -270.0)",0,1464.744700002484,1464.7297999908915,True,False
17,2,228.54461190001166,cross,"(480.0, -270.0)",0,1481.4278000121703,1481.4129000005778,True,False
17,2,228.56130909999774,cross,"(480.0, -270.0)",0,1498.1249999982538,1498.1100999866612,True,False
17,2,228.5776906000101,cross,"(480.0, -270.0)",0,1514.5065000106115,1514.491599999019,True,False
17,2,228.59450720000314,cross,"(480.0, -270.0)",0,1531.3231000036467,1531.3081999920541,True,False
17,2,228.6107825000072,cross,"(480.0, -270.0)",0,1547.5984000077005,1547.583499996108,True,False
17,2,228.62775680000777,cross,"(480.0, -270.0)",0,1564.5727000082843,1564.5577999966918,True,False
17,2,228.6469214000099,cross,"(480.0, -270.0)",0,1583.737300010398,1583.7223999988055,True,False
17,2,228.66207089999807,cross,"(480.0, -270.0)",0,1598.8867999985814,1598.8718999869889,True,False
17,2,228.677743200009,cross,"(480.0, -270.0)",0,1614.559100009501,1614.5441999979084,True,False
17,2,228.69369690000894,cross,"(480.0, -270.0)",0,1630.5128000094555,1630.497899997863,True,False
17,2,228.71082320000278,cross,"(480.0, -270.0)",0,1647.639100003289,1647.6241999916965,True,False
17,2,228.72833060000266,cross,"(480.0, -270.0)",0,1665.1465000031749,1665.1315999915823,True,False
17,2,228.74467030000233,cross,"(480.0, -270.0)",0,1681.486200002837,1681.4712999912445,True,False
17,2,228.7613765999995,cross,"(480.0, -270.0)",0,1698.1925000000047,1698.177599988412,True,False
17,2,228.7786388000095,cross,"(480.0, -270.0)",0,1715.4547000100138,1715.4397999984212,True,False
17,2,228.7949929000024,cross,"(480.0, -270.0)",0,1731.8088000029093,1731.7938999913167,True,False
17,2,228.8111293000111,cross,"(480.0, -270.0)",0,1747.9452000115998,1747.9303000000073,True,False
17,2,228.82806390000042,cross,"(480.0, -270.0)",0,1764.8798000009265,1764.864899989334,True,False
17,2,228.84316450000915,cross,"(480.0, -270.0)",0,1779.9804000096628,1779.9654999980703,True,False
17,2,228.86108070000773,cross,"(480.0, -270.0)",0,1797.8966000082437,1797.8816999966512,True,False
17,2,228.8630039999989,cross,"(480.0, -270.0)",514.5821999904001,1799.8198999994202,1799.8049999878276,False,True
17,3,229.14432040000975,cross,"(480.0, -270.0)",264.2125999991549,2081.1363000102574,281.31640001083724,True,False
17,3,229.16318090001005,cross,"(480.0, -270.0)",0,2099.996800010558,300.17690001113806,True,False
17,3,229.1773583000031,cross,"(480.0, -270.0)",0,2114.1742000036174,314.3543000041973,True,False
17,3,229.1934620000102,cross,"(480.0, -270.0)",0,2130.2779000106966,330.45800001127645,True,False
17,3,229.2106521000096,cross,"(480.0, -270.0)",0,2147.4680000101216,347.64810001070146,True,False
17,3,229.2267833000078,cross,"(480.0, -270.0)",0,2163.5992000083206,363.77930000890046,True,False
17,3,229.24404390000564,cross,"(480.0, -270.0)",0,2180.8598000061465,381.0399000067264,True,False
17,3,229.26071300001058,cross,"(480.0, -270.0)",0,2197.5289000110934,397.7090000116732,True,False
17,3,229.2777602999995,cross,"(480.0, -270.0)",0,2214.5762000000104,414.7563000005903,True,False
17,3,229.29448870000488,cross,"(480.0, -270.0)",0,2231.3046000053873,431.48470000596717,True,False
17,3,229.31098270000075,cross,"(480.0, -270.0)",0,2247.7986000012606,447.9787000018405,True,False
17,3,229.32805260000168,cross,"(480.0, -270.0)",0,2264.868500002194,465.04860000277404,True,False
17,3,229.34429980001005,cross,"(480.0, -270.0)",0,2281.1157000105595,481.29580001113936,True,False
17,3,229.36120090000622,cross,"(480.0, -270.0)",0,2298.016800006735,498.196900007315,True,False
17,3,229.3765543000045,cross,"(480.0, -270.0)",0,2313.3702000050107,513.5503000055905,True,False
17,3,229.39422159999958,cross,"(480.0, -270.0)",0,2331.037500000093,531.217600000673,True,False
17,3,229.4100419000024,cross,"(480.0, -270.0)",0,2346.8578000029083,547.0379000034882,True,False
17,3,229.4275512000022,cross,"(480.0, -270.0)",0,2364.36710000271,564.5472000032896,True,False
17,3,229.44402350000746,cross,"(480.0, -270.0)",0,2380.8394000079716,581.0195000085514,True,False
17,3,229.460433500004,cross,"(480.0, -270.0)",0,2397.2494000045117,597.4295000050915,True,False
17,3,229.47721110000566,cross,"(480.0, -270.0)",0,2414.027000006172,614.2071000067517,True,False
17,3,229.493492900001,cross,"(480.0, -270.0)",0,2430.3088000015123,630.4889000020921,True,False
17,3,229.51091540000925,cross,"(480.0, -270.0)",0,2447.731300009764,647.9114000103436,True,False
17,3,229.5276162000082,cross,"(480.0, -270.0)",0,2464.4321000087075,664.6122000092873,True,False
17,3,229.54448480000428,cross,"(480.0, -270.0)",0,2481.3007000047946,681.4808000053745,True,False
17,3,229.56111670000246,cross,"(480.0, -270.0)",0,2497.9326000029687,698.1127000035485,True,False
17,3,229.57783970001037,cross,"(480.0, -270.0)",0,2514.655600010883,714.8357000114629,True,False
17,3,229.59443930000998,cross,"(480.0, -270.0)",0,2531.2552000104915,731.4353000110714,True,False
17,3,229.6107783000043,cross,"(480.0, -270.0)",0,2547.5942000048235,747.7743000054033,True,False
17,3,229.62645619999967,cross,"(480.0, -270.0)",0,2563.2721000001766,763.4522000007564,True,False
17,3,229.64438240000163,cross,"(480.0, -270.0)",0,2581.198300002143,781.3784000027226,True,False
17,3,229.66533509999863,cross,"(480.0, -270.0)",0,2602.1509999991395,802.3310999997193,True,False
17,3,229.6789468000061,cross,"(480.0, -270.0)",0,2615.7627000065986,815.9428000071784,True,False
17,3,229.694699700005,cross,"(480.0, -270.0)",0,2631.515600005514,831.6957000060938,True,False
17,3,229.71085350000067,cross,"(480.0, -270.0)",0,2647.6694000011776,847.8495000017574,True,False
17,3,229.7274796999991,cross,"(480.0, -270.0)",0,2664.2955999996047,864.4757000001846,True,False
17,3,229.7440501000092,cross,"(480.0, -270.0)",0,2680.8660000097007,881.0461000102805,True,False
17,3,229.76089410000714,cross,"(480.0, -270.0)",0,2697.710000007646,897.890100008226,True,False
17,3,229.77740849999827,cross,"(480.0, -270.0)",0,2714.224399998784,914.4044999993639,True,False
17,3,229.79425600000832,cross,"(480.0, -270.0)",0,2731.0719000088284,931.2520000094082,True,False
17,3,229.81069569999818,cross,"(480.0, -270.0)",0,2747.5115999986883,947.6916999992682,True,False
17,3,229.82646620000014,cross,"(480.0, -270.0)",0,2763.2821000006516,963.4622000012314,True,False
17,3,229.84298030000355,cross,"(480.0, -270.0)",0,2779.796200004057,979.9763000046369,True,False
17,3,229.86069640000642,cross,"(480.0, -270.0)",0,2797.512300006929,997.6924000075087,True,False
17,3,229.87675049999962,cross,"(480.0, -270.0)",0,2813.566400000127,1013.7465000007069,True,False
17,3,229.89384570000402,cross,"(480.0, -270.0)",0,2830.6616000045324,1030.8417000051122,True,False
17,3,229.91039020000608,cross,"(480.0, -270.0)",0,2847.206100006588,1047.3862000071676,True,False
17,3,229.92745200000354,cross,"(480.0, -270.0)",0,2864.2679000040516,1064.4480000046315,True,False
17,3,229.9441327000095,cross,"(480.0, -270.0)",0,2880.948600010015,1081.128700010595,True,False
17,3,229.96073910000268,cross,"(480.0, -270.0)",0,2897.5550000031944,1097.7351000037743,True,False
17,3,229.97734579999815,cross,"(480.0, -270.0)",0,2914.161699998658,1114.341799999238,True,False
17,3,229.9941633999988,cross,"(480.0, -270.0)",0,2930.979299999308,1131.1593999998877,True,False
17,3,230.0110590999975,cross,"(480.0, -270.0)",0,2947.874999998021,1148.0550999986008,True,False
17,3,230.0274219999992,cross,"(480.0, -270.0)",0,2964.2378999997163,1164.4180000002962,True,False
17,3,230.04296600000816,cross,"(480.0, -270.0)",0,2979.7819000086747,1179.9620000092546,True,False
17,3,230.06090360000962,cross,"(480.0, -270.0)",0,2997.7195000101347,1197.8996000107145,True,False
17,3,230.0767338000005,cross,"(480.0, -270.0)",0,3013.549700001022,1213.7298000016017,True,False
17,3,230.09329740000248,cross,"(480.0, -270.0)",0,3030.113300002995,1230.2934000035748,True,False
17,3,230.11007840000093,cross,"(480.0, -270.0)",0,3046.8943000014406,1247.0744000020204,True,False
17,3,230.12670620001154,cross,"(480.0, -270.0)",0,3063.522100012051,1263.7022000126308,True,False
17,3,230.14406659999804,cross,"(480.0, -270.0)",0,3080.882499998552,1281.0625999991316,True,False
17,3,230.16037379999761,cross,"(480.0, -270.0)",0,3097.1896999981254,1297.3697999987053,True,False
17,3,230.17746550000447,cross,"(480.0, -270.0)",0,3114.281400004984,1314.4615000055637,True,False
17,3,230.1943547999981,cross,"(480.0, -270.0)",0,3131.17069999862,1331.3507999991998,True,False
17,3,230.2103999000101,cross,"(480.0, -270.0)",0,3147.215800010599,1347.395900011179,True,False
17,3,230.2274543000094,cross,"(480.0, -270.0)",0,3164.2702000099234,1364.4503000105033,True,False
17,3,230.24405000000843,cross,"(480.0, -270.0)",0,3180.865900008939,1381.046000009519,True,False
17,3,230.2597941999993,cross,"(480.0, -270.0)",0,3196.610099999816,1396.790200000396,True,False
17,3,230.27645990000747,cross,"(480.0, -270.0)",0,3213.2758000079775,1413.4559000085574,True,False
17,3,230.29341170001135,cross,"(480.0, -270.0)",0,3230.227600011858,1430.407700012438,True,False
17,3,230.31038560000889,cross,"(480.0, -270.0)",0,3247.201500009396,1447.381600009976,True,False
17,3,230.3266760999977,cross,"(480.0, -270.0)",0,3263.491999998223,1463.6720999988029,True,False
17,3,230.3433509000024,cross,"(480.0, -270.0)",0,3280.1668000029167,1480.3469000034966,True,False
17,3,230.36016200001177,cross,"(480.0, -270.0)",0,3296.97790001228,1497.1580000128597,True,False
17,3,230.376752199998,cross,"(480.0, -270.0)",0,3313.5680999985198,1513.7481999990996,True,False
17,3,230.39383090000774,cross,"(480.0, -270.0)",0,3330.646800008253,1530.826900008833,True,False
17,3,230.4103790000081,cross,"(480.0, -270.0)",0,3347.194900008617,1547.3750000091968,True,False
17,3,230.42734000000928,cross,"(480.0, -270.0)",0,3364.1559000097914,1564.3360000103712,True,False
17,3,230.443995300011,cross,"(480.0, -270.0)",0,3380.8112000115216,1580.9913000121014,True,False
17,3,230.46084559999872,cross,"(480.0, -270.0)",0,3397.6614999992307,1597.8415999998106,True,False
17,3,230.4774083000084,cross,"(480.0, -270.0)",0,3414.2242000089027,1614.4043000094825,True,False
17,3,230.4940792999987,cross,"(480.0, -270.0)",0,3430.895199999213,1631.075299999793,True,False
17,3,230.5097766000108,cross,"(480.0, -270.0)",0,3446.59250001132,1646.7726000119,True,False
17,3,230.5275355000049,cross,"(480.0, -270.0)",0,3464.3514000053983,1664.5315000059782,True,False
17,3,230.54602059999888,cross,"(480.0, -270.0)",0,3482.8364999993937,1683.0165999999736,True,False
17,3,230.5608276999992,cross,"(480.0, -270.0)",0,3497.6435999997193,1697.8237000002991,True,False
17,3,230.5766910000093,cross,"(480.0, -270.0)",0,3513.5069000098156,1713.6870000103954,True,False
17,3,230.59383750001143,cross,"(480.0, -270.0)",0,3530.6534000119427,1730.8335000125226,True,False
17,3,230.61003330000676,cross,"(480.0, -270.0)",0,3546.849200007273,1747.0293000078527,True,False
17,3,230.6266134000034,cross,"(480.0, -270.0)",0,3563.429300003918,1763.6094000044977,True,False
17,3,230.64303089999885,cross,"(480.0, -270.0)",0,3579.846799999359,1780.026899999939,True,False
17,3,230.6596062000026,cross,"(480.0, -270.0)",0,3596.4221000031102,1796.60220000369,True,False
17,3,230.6772903000092,cross,"(480.0, -270.0)",0,3614.106200009701,1814.2863000102807,True,False
17,3,231.81111280000187,star,"(-480.0, 270.0)",252.01919999381062,4747.928700002376,2948.108800002956,False,True
17,4,235.3592006000108,t,"(480.0, 270.0)",266.95509999990463,8296.01650001132,3548.0878000089433,False,True
