trial_num,selection_num,timestamp,shape,position,fixation_duration_ms,rt_from_trial_start_ms,rt_from_previous_selection_ms,queued_selection,was_executed
13,1,194.0715928999998,circle,"(-480.0, -270.0)",0,0.01610000617802143,0.01610000617802143,False,True
14,1,201.36738479998894,circle,"(-480.0, -270.0)",0,0.014999997802078724,0.014999997802078724,False,True
14,2,202.03269049999653,circle,"(-480.0, -270.0)",266.3017000013497,665.3207000053953,665.3057000075933,True,False
14,2,202.05258279999543,circle,"(-480.0, -270.0)",0,685.2130000042962,685.1980000064941,True,False
14,2,202.0660218999983,circle,"(-480.0, -270.0)",0,698.6521000071662,698.6371000093641,True,False
14,2,202.0834904999938,circle,"(-480.0, -270.0)",0,716.1207000026479,716.1057000048459,True,False
14,2,202.1000528000004,circle,"(-480.0, -270.0)",0,732.6830000092741,732.668000011472,True,False
14,2,202.1158119999891,circle,"(-480.0, -270.0)",0,748.4421999979531,748.4272000001511,True,False
14,2,202.13323259999743,circle,"(-480.0, -270.0)",0,765.862800006289,765.847800008487,True,False
14,2,202.14859459998843,circle,"(-480.0, -270.0)",0,781.2247999972897,781.2097999994876,True,False
14,2,202.16640939998615,circle,"(-480.0, -270.0)",0,799.0395999950124,799.0245999972103,True,False
14,2,202.18164479998813,circle,"(-480.0, -270.0)",0,814.2749999969965,814.2599999991944,True,False
14,2,202.1994194999861,circle,"(-480.0, -270.0)",0,832.0496999949683,832.0346999971662,True,False
14,2,202.21533359999012,circle,"(-480.0, -270.0)",0,847.9637999989791,847.948800001177,True,False
14,2,202.23358569999982,circle,"(-480.0, -270.0)",0,866.2159000086831,866.200900010881,True,False
14,2,202.24971389998973,circle,"(-480.0, -270.0)",0,882.3440999985905,882.3291000007885,True,False
14,2,202.26612169999862,circle,"(-480.0, -270.0)",0,898.7519000074826,898.7369000096805,True,False
14,2,202.28235289998702,circle,"(-480.0, -270.0)",0,914.9830999958795,914.9680999980774,True,False
14,2,202.2997919999907,circle,"(-480.0, -270.0)",0,932.4221999995643,932.4072000017622,True,False
14,2,202.31577059999108,circle,"(-480.0, -270.0)",0,948.4007999999449,948.3858000021428,True,False
14,2,202.33308639998722,circle,"(-480.0, -270.0)",0,965.7165999960853,965.7015999982832,True,False
14,2,202.34858359998907,circle,"(-480.0, -270.0)",0,981.2137999979313,981.1988000001293,True,False
14,2,202.36631689999194,circle,"(-480.0, -270.0)",0,998.9471000008052,998.9321000030031,True,False
14,2,202.38262549998763,circle,"(-480.0, -270.0)",0,1015.2556999964872,1015.2406999986852,True,False
14,2,202.40510319999885,circle,"(-480.0, -270.0)",0,1037.7334000077099,1037.7184000099078,True,False
14,2,202.41709109999647,circle,"(-480.0, -270.0)",0,1049.7213000053307,1049.7063000075286,True,False
14,2,202.43263569999544,circle,"(-480.0, -270.0)",0,1065.2659000043059,1065.2509000065038,True,False
14,2,202.44893359999696,circle,"(-480.0, -270.0)",0,1081.5638000058243,1081.5488000080222,True,False
14,2,202.466013799989,circle,"(-480.0, -270.0)",0,1098.6439999978757,1098.6290000000736,True,False
14,2,202.48222569999052,circle,"(-480.0, -270.0)",0,1114.8558999993838,1114.8409000015818,True,False
14,2,202.4996792999882,circle,"(-480.0, -270.0)",0,1132.3094999970635,1132.2944999992615,True,False
14,2,202.5155711999978,circle,"(-480.0, -270.0)",0,1148.2014000066556,1148.1864000088535,True,False
14,2,202.5330624999915,circle,"(-480.0, -270.0)",0,1165.6927000003634,1165.6777000025613,True,False
14,2,202.54851409999537,circle,"(-480.0, -270.0)",0,1181.1443000042345,1181.1293000064325,True,False
14,2,202.56643129998702,circle,"(-480.0, -270.0)",0,1199.061499995878,1199.046499998076,True,False
14,2,202.58228859999508,circle,"(-480.0, -270.0)",0,1214.918800003943,1214.903800006141,True,False
14,2,202.5991795999871,circle,"(-480.0, -270.0)",0,1231.8097999959718,1231.7947999981698,True,False
14,2,202.6155155999877,circle,"(-480.0, -270.0)",0,1248.1457999965642,1248.130799998762,True,False
14,2,202.63240979998955,circle,"(-480.0, -270.0)",0,1265.0399999984074,1265.0250000006054,True,False
14,2,202.64884179999353,circle,"(-480.0, -270.0)",0,1281.4720000023954,1281.4570000045933,True,False
14,2,202.66656030000013,circle,"(-480.0, -270.0)",0,1299.19050000899,1299.175500011188,True,False
14,2,202.68206099999952,circle,"(-480.0, -270.0)",0,1314.691200008383,1314.676200010581,True,False
14,2,202.69943959999364,circle,"(-480.0, -270.0)",0,1332.0698000025004,1332.0548000046983,True,False
14,2,202.71523439999146,circle,"(-480.0, -270.0)",0,1347.864600000321,1347.8496000025189,True,False
14,2,202.73282379999,circle,"(-480.0, -270.0)",0,1365.4539999988629,1365.4390000010608,True,False
14,2,202.74879909999436,circle,"(-480.0, -270.0)",0,1381.4293000032194,1381.4143000054173,True,False
14,2,202.76613839999482,circle,"(-480.0, -270.0)",0,1398.7686000036774,1398.7536000058753,True,False
14,2,202.78140199999325,circle,"(-480.0, -270.0)",0,1414.0322000021115,1414.0172000043094,True,False
14,2,202.79939379999996,circle,"(-480.0, -270.0)",0,1432.0240000088234,1432.0090000110213,True,False
14,2,202.81538639999053,circle,"(-480.0, -270.0)",0,1448.0165999993915,1448.0016000015894,True,False
14,2,202.8324639999919,circle,"(-480.0, -270.0)",0,1465.094200000749,1465.079200002947,True,False
14,2,202.84901789999276,circle,"(-480.0, -270.0)",0,1481.648100001621,1481.633100003819,True,False
14,2,202.86596479998843,circle,"(-480.0, -270.0)",0,1498.5949999972945,1498.5799999994924,True,False
14,2,202.88232159998734,circle,"(-480.0, -270.0)",0,1514.9517999961972,1514.9367999983951,True,False
14,2,202.8993838999886,circle,"(-480.0, -270.0)",0,1532.0140999974683,1531.9990999996662,True,False
14,2,202.91552079998655,circle,"(-480.0, -270.0)",0,1548.1509999954142,1548.135999997612,True,False
14,2,202.9327043999947,circle,"(-480.0, -270.0)",0,1565.3346000035526,1565.3196000057505,True,False
14,2,202.94864909999887,circle,"(-480.0, -270.0)",0,1581.2793000077363,1581.2643000099342,True,False
14,2,202.96589409999433,circle,"(-480.0, -270.0)",0,1598.5243000031915,1598.5093000053894,True,False
14,2,202.98183969999081,circle,"(-480.0, -270.0)",0,1614.4698999996763,1614.4549000018742,True,False
14,2,202.99936659999366,circle,"(-480.0, -270.0)",0,1631.9968000025256,1631.9818000047235,True,False
14,2,203.01481019999483,circle,"(-480.0, -270.0)",0,1647.4404000036884,1647.4254000058863,True,False
14,2,203.03271799998765,circle,"(-480.0, -270.0)",0,1665.3481999965152,1665.333199998713,True,False
14,2,203.04872859999887,circle,"(-480.0, -270.0)",0,1681.3588000077289,1681.3438000099268,True,False
14,2,203.0654799999902,circle,"(-480.0, -270.0)",0,1698.1101999990642,1698.0952000012621,True,False
14,2,203.08188639998843,circle,"(-480.0, -270.0)",0,1714.516599997296,1714.501599999494,True,False
14,2,203.09908919999725,circle,"(-480.0, -270.0)",0,1731.7194000061136,1731.7044000083115,True,False
14,2,203.11513019999256,circle,"(-480.0, -270.0)",0,1747.7604000014253,1747.7454000036232,True,False
14,2,203.1326859999972,circle,"(-480.0, -270.0)",0,1765.3162000060547,1765.3012000082526,True,False
14,2,203.1486686999997,circle,"(-480.0, -270.0)",0,1781.2989000085508,1781.2839000107488,True,False
14,2,203.16594609999447,circle,"(-480.0, -270.0)",0,1798.576300003333,1798.561300005531,True,False
14,2,204.79882409999846,star,"(-480.0, 270.0)",251.39960000524297,3431.454300007317,3431.439300009515,False,True
14,3,205.21515859999636,t,"(480.0, 270.0)",267.0228000060888,3847.788800005219,416.33449999790173,True,False
14,3,205.23376289999578,t,"(480.0, 270.0)",0,3866.393100004643,434.938799997326,True,False
14,3,205.24907289999828,t,"(480.0, 270.0)",0,3881.703100007144,450.2487999998266,True,False
14,3,205.26459569999133,t,"(480.0, 270.0)",0,3897.225900000194,465.7715999928769,True,False
14,3,205.2817146999878,t,"(480.0, 270.0)",0,3914.3448999966495,482.89059998933226,True,False
14,3,205.2982178999955,t,"(480.0, 270.0)",0,3930.8481000043685,499.39379999705125,True,False
14,3,205.31525819998933,t,"(480.0, 270.0)",0,3947.8883999981917,516.4340999908745,True,False
14,3,205.33119379999698,t,"(480.0, 270.0)",0,3963.824000005843,532.3696999985259,True,False
14,3,205.3483486999903,t,"(480.0, 270.0)",0,3980.9788999991724,549.5245999918552,True,False
14,3,205.36510019999696,t,"(480.0, 270.0)",0,3997.730400005821,566.2760999985039,True,False
14,3,205.38236029999098,t,"(480.0, 270.0)",0,4014.99049999984,583.5361999925226,True,False
14,3,205.3979999000003,t,"(480.0, 270.0)",0,4030.630100009148,599.1758000018308,True,False
14,3,205.41525839999667,t,"(480.0, 270.0)",0,4047.8886000055354,616.4342999982182,True,False
14,3,205.43091539999295,t,"(480.0, 270.0)",0,4063.5456000018166,632.0912999944994,True,False
14,3,205.4487792999862,t,"(480.0, 270.0)",0,4081.409499995061,649.955199987744,True,False
14,3,205.46457729999383,t,"(480.0, 270.0)",0,4097.207500002696,665.753199995379,True,False
14,3,205.48174999999173,t,"(480.0, 270.0)",0,4114.380200000596,682.925899993279,True,False
14,3,205.49788729999273,t,"(480.0, 270.0)",0,4130.517500001588,699.0631999942707,True,False
14,3,205.51526279999234,t,"(480.0, 270.0)",0,4147.893000001204,716.438699993887,True,False
14,3,205.53119270000025,t,"(480.0, 270.0)",0,4163.822900009109,732.3686000017915,True,False
14,3,205.5488711999933,t,"(480.0, 270.0)",0,4181.501400002162,750.0470999948448,True,False
14,3,205.56459679998807,t,"(480.0, 270.0)",0,4197.2269999969285,765.7726999896113,True,False
14,3,205.58193949999986,t,"(480.0, 270.0)",0,4214.569700008724,783.1154000014067,True,False
14,3,205.59780199998931,t,"(480.0, 270.0)",0,4230.432199998177,798.9778999908594,True,False
14,3,205.61508219999087,t,"(480.0, 270.0)",0,4247.7123999997275,816.2580999924103,True,False
14,3,205.6175363999937,star,"(-480.0, 270.0)",267.0656999980565,4250.166600002558,818.7122999952408,True,False
14,3,205.63384009999572,star,"(-480.0, 270.0)",0,4266.470300004585,835.0159999972675,True,False
14,3,205.6485282999929,star,"(-480.0, 270.0)",0,4281.158500001766,849.7041999944486,True,False
14,3,205.66551169999002,star,"(-480.0, 270.0)",0,4298.141899998882,866.6875999915646,True,False
14,3,205.68171299999813,star,"(-480.0, 270.0)",0,4314.343200006988,882.8888999996707,True,False
14,3,205.6975351999863,star,"(-480.0, 270.0)",0,4330.165399995167,898.7110999878496,True,False
14,3,205.71511499999906,star,"(-480.0, 270.0)",0,4347.745200007921,916.2909000006039,True,False
14,3,205.7311248999904,star,"(-480.0, 270.0)",0,4363.755099999253,932.3007999919355,True,False
14,3,205.7484407999873,star,"(-480.0, 270.0)",0,4381.070999996155,949.6166999888374,True,False
14,3,205.76441720000003,star,"(-480.0, 270.0)",0,4397.047400008887,965.5931000015698,True,False
14,3,205.7818777999928,star,"(-480.0, 270.0)",0,4414.508000001661,983.0536999943433,True,False
14,3,205.79781089999597,star,"(-480.0, 270.0)",0,4430.441100004828,998.9867999975104,True,False
14,3,205.81525899999542,star,"(-480.0, 270.0)",0,4447.889200004283,1016.4348999969661,True,False
14,3,205.83084119998966,star,"(-480.0, 270.0)",0,4463.471399998525,1032.017099991208,True,False
14,3,205.84824389999267,star,"(-480.0, 270.0)",0,4480.874100001529,1049.4197999942116,True,False
14,3,205.86452079999435,star,"(-480.0, 270.0)",0,4497.151000003214,1065.6966999958968,True,False
14,3,205.8819414999889,star,"(-480.0, 270.0)",0,4514.571699997759,1083.1173999904422,True,False
14,3,205.89756459998898,star,"(-480.0, 270.0)",0,4530.194799997844,1098.7404999905266,True,False
14,3,205.91518059998634,star,"(-480.0, 270.0)",0,4547.810799995204,1116.3564999878872,True,False
14,3,205.93099149999034,star,"(-480.0, 270.0)",0,4563.621699999203,1132.1673999918858,True,False
14,3,205.9482960999885,star,"(-480.0, 270.0)",0,4580.926299997373,1149.4719999900553,True,False
14,3,205.96439459999965,star,"(-480.0, 270.0)",0,4597.024800008512,1165.570500001195,True,False
14,3,205.98159979999764,star,"(-480.0, 270.0)",0,4614.230000006501,1182.7756999991834,True,False
14,3,205.99774129998696,star,"(-480.0, 270.0)",0,4630.371499995817,1198.9171999885002,True,False
14,3,206.01502729998901,star,"(-480.0, 270.0)",0,4647.657499997877,1216.2031999905594,True,False
14,3,206.0306450999924,star,"(-480.0, 270.0)",0,4663.27530000126,1231.8209999939427,True,False
14,3,206.04844259998936,star,"(-480.0, 270.0)",0,4681.072799998219,1249.618499990902,True,False
14,3,206.06431649999286,star,"(-480.0, 270.0)",0,4696.9467000017175,1265.4923999944003,True,False
14,3,206.0821956999862,star,"(-480.0, 270.0)",0,4714.8258999950485,1283.3715999877313,True,False
14,3,206.0978247999883,star,"(-480.0, 270.0)",0,4730.454999997164,1299.000699989847,True,False
14,3,206.114788699997,star,"(-480.0, 270.0)",0,4747.418900005869,1315.9645999985514,True,False
14,3,206.13126099998772,star,"(-480.0, 270.0)",0,4763.8911999965785,1332.4368999892613,True,False
14,3,206.14841799999704,star,"(-480.0, 270.0)",0,4781.048200005898,1349.593899998581,True,False
14,3,206.16444949999277,star,"(-480.0, 270.0)",0,4797.079700001632,1365.6253999943146,True,False
14,3,206.18173419999948,star,"(-480.0, 270.0)",0,4814.364400008344,1382.9101000010269,True,False
14,3,206.19730269999127,star,"(-480.0, 270.0)",0,4829.932900000131,1398.4785999928135,True,False
14,3,206.21479889999318,star,"(-480.0, 270.0)",0,4847.429100002046,1415.9747999947285,True,False
14,3,206.2309363999957,star,"(-480.0, 270.0)",0,4863.56660000456,1432.112299997243,True,False
14,3,206.24834669999836,star,"(-480.0, 270.0)",0,4880.9769000072265,1449.5225999999093,True,False
14,3,206.2638469999947,star,"(-480.0, 270.0)",0,4896.477200003574,1465.0228999962565,True,False
14,3,206.28142029998708,star,"(-480.0, 270.0)",0,4914.050499995938,1482.5961999886204,True,False
14,3,206.297430599996,star,"(-480.0, 270.0)",0,4930.060800004867,1498.6064999975497,True,False
14,3,206.3149551999959,star,"(-480.0, 270.0)",0,4947.585400004755,1516.1310999974376,True,False
14,3,206.3311296999891,star,"(-480.0, 270.0)",0,4963.759899997967,1532.30559999065,True,False
14,3,206.34843009999895,star,"(-480.0, 270.0)",0,4981.060300007812,1549.6060000004945,True,False
14,3,206.36450689999037,star,"(-480.0, 270.0)",0,4997.137099999236,1565.6827999919187,True,False
14,3,206.38144230000034,star,"(-480.0, 270.0)",0,5014.072500009206,1582.618200001889,True,False
14,3,206.3978320999886,star,"(-480.0, 270.0)",0,5030.462299997453,1599.0079999901354,True,False
14,3,206.41504919998988,star,"(-480.0, 270.0)",0,5047.679399998742,1616.225099991425,True,False
14,3,206.43085649999557,star,"(-480.0, 270.0)",0,5063.486700004432,1632.0323999971151,True,False
14,3,206.4482078999863,star,"(-480.0, 270.0)",0,5080.838099995162,1649.3837999878451,True,False
14,3,206.46408119999978,star,"(-480.0, 270.0)",0,5096.711400008644,1665.2571000013268,True,False
14,3,206.48156259999087,star,"(-480.0, 270.0)",0,5114.192799999728,1682.7384999924107,True,False
14,3,206.4974946000002,star,"(-480.0, 270.0)",0,5130.124800009071,1698.6705000017537,True,False
14,3,206.52031100000022,star,"(-480.0, 270.0)",0,5152.9412000090815,1721.4869000017643,True,False
14,3,206.5321985999908,star,"(-480.0, 270.0)",0,5164.828799999668,1733.374499992351,True,False
14,3,206.54821669998637,star,"(-480.0, 270.0)",0,5180.846899995231,1749.3925999879139,True,False
14,3,206.56374319999304,star,"(-480.0, 270.0)",0,5196.373400001903,1764.9190999945858,True,False
14,3,206.5815319999965,star,"(-480.0, 270.0)",0,5214.162200005376,1782.7078999980586,True,False
14,3,207.14785019999545,t,"(480.0, 270.0)",251.24189999769442,5780.480400004308,2349.0260999969905,False,True
14,4,209.51319679999142,cross,"(480.0, -270.0)",250.9003000013763,8145.827000000281,2365.3465999959735,False,True
15,1,213.6474324999872,circle,"(-480.0, -270.0)",0,0.011399999493733048,0.011399999493733048,False,True
15,2,214.06211479999183,star,"(-480.0, 270.0)",266.58700000552926,414.6937000041362,414.68230000464246,True,False
15,2,214.08142449999286,star,"(-480.0, 270.0)",0,434.00340000516735,433.9920000056736,True,False
15,2,214.09519129998807,star,"(-480.0, 270.0)",0,447.7702000003774,447.75880000088364,True,False
15,2,214.11158869999053,star,"(-480.0, 270.0)",0,464.1676000028383,464.15620000334457,True,False
15,2,214.12882349999563,star,"(-480.0, 270.0)",0,481.4024000079371,481.39100000844337,True,False
15,2,214.1452142999915,star,"(-480.0, 270.0)",0,497.7932000037981,497.7818000043044,True,False
15,2,214.16186069999821,star,"(-480.0, 270.0)",0,514.4396000105189,514.4282000110252,True,False
15,2,214.17881459998898,star,"(-480.0, 270.0)",0,531.3935000012862,531.3821000017924,True,False
15,2,214.1955736999953,star,"(-480.0, 270.0)",0,548.1526000075974,548.1412000081036,True,False
15,2,214.21180799999274,star,"(-480.0, 270.0)",0,564.3869000050472,564.3755000055535,True,False
15,2,214.22776209999574,star,"(-480.0, 270.0)",0,580.3410000080476,580.3296000085538,True,False
15,2,214.2456158999994,star,"(-480.0, 270.0)",0,598.1948000116972,598.1834000122035,True,False
15,2,214.26165599998785,star,"(-480.0, 270.0)",0,614.2349000001559,614.2235000006622,True,False
15,2,214.2789890999993,star,"(-480.0, 270.0)",0,631.5680000116117,631.556600012118,True,False
15,2,214.29512939999404,star,"(-480.0, 270.0)",0,647.708300006343,647.6969000068493,True,False
15,2,214.3121503000002,star,"(-480.0, 270.0)",0,664.7292000125162,664.7178000130225,True,False
15,2,214.32806909999636,star,"(-480.0, 270.0)",0,680.6480000086594,680.6366000091657,True,False
15,2,214.34572019999905,star,"(-480.0, 270.0)",0,698.2991000113543,698.2877000118606,True,False
15,2,214.3617285999935,star,"(-480.0, 270.0)",0,714.3075000058161,714.2961000063224,True,False
15,2,214.3789376999921,star,"(-480.0, 270.0)",0,731.5166000043973,731.5052000049036,True,False
15,2,214.39442339999368,star,"(-480.0, 270.0)",0,747.0023000059882,746.9909000064945,True,False
15,2,214.41233269999793,star,"(-480.0, 270.0)",0,764.9116000102367,764.900200010743,True,False
15,2,214.42798409999523,star,"(-480.0, 270.0)",0,780.5630000075325,780.5516000080388,True,False
15,2,214.44569009999395,star,"(-480.0, 270.0)",0,798.2690000062576,798.2576000067638,True,False
15,2,214.46162479999475,star,"(-480.0, 270.0)",0,814.2037000070559,814.1923000075622,True,False
15,2,214.4789493999997,star,"(-480.0, 270.0)",0,831.5283000119962,831.5169000125024,True,False
15,2,214.49506739999924,star,"(-480.0, 270.0)",0,847.6463000115473,847.6349000120535,True,False
15,2,214.51208049998968,star,"(-480.0, 270.0)",0,864.6594000019832,864.6480000024894,True,False
15,2,214.52805879998778,star,"(-480.0, 270.0)",0,880.6377000000793,880.6263000005856,True,False
15,2,214.54524759999185,star,"(-480.0, 270.0)",0,897.8265000041574,897.8151000046637,True,False
15,2,214.56141299998853,star,"(-480.0, 270.0)",0,913.9919000008376,913.9805000013439,True,False
15,2,214.57839329999115,star,"(-480.0, 270.0)",0,930.9722000034526,930.9608000039589,True,False
15,2,214.59454899998673,star,"(-480.0, 270.0)",0,947.1278999990318,947.1164999995381,True,False
15,2,214.61191049999616,star,"(-480.0, 270.0)",0,964.4894000084605,964.4780000089668,True,False
15,2,214.62806699999783,star,"(-480.0, 270.0)",0,980.6459000101313,980.6345000106376,True,False
15,2,214.64487689999805,star,"(-480.0, 270.0)",0,997.455800010357,997.4444000108633,True,False
15,2,214.66198379998968,star,"(-480.0, 270.0)",0,1014.5627000019886,1014.5513000024948,True,False
15,2,214.67817919999652,star,"(-480.0, 270.0)",0,1030.7581000088248,1030.746700009331,True,False
15,2,214.6956790999975,star,"(-480.0, 270.0)",0,1048.2580000098096,1048.246600010316,True,False
15,2,214.71218029999,star,"(-480.0, 270.0)",0,1064.7592000022996,1064.747800002806,True,False
15,2,214.72865259999526,star,"(-480.0, 270.0)",0,1081.2315000075614,1081.2201000080677,True,False
15,2,214.7450841999962,star,"(-480.0, 270.0)",0,1097.6631000085035,1097.6517000090098,True,False
15,2,214.76198969999678,star,"(-480.0, 270.0)",0,1114.568600009079,1114.5572000095854,True,False
15,2,214.77814059999946,star,"(-480.0, 270.0)",0,1130.7195000117645,1130.7081000122707,True,False
15,2,214.79545009999129,star,"(-480.0, 270.0)",0,1148.0290000035893,1148.0176000040956,True,False
15,2,214.81132349999098,star,"(-480.0, 270.0)",0,1163.9024000032805,1163.8910000037868,True,False
15,2,214.8288346999907,star,"(-480.0, 270.0)",0,1181.4136000029976,1181.4022000035038,True,False
15,2,214.84490969999752,star,"(-480.0, 270.0)",0,1197.4886000098195,1197.4772000103258,True,False
15,2,214.86158199999772,star,"(-480.0, 270.0)",0,1214.1609000100289,1214.1495000105351,True,False
15,2,214.87776389998908,star,"(-480.0, 270.0)",0,1230.342800001381,1230.3314000018872,True,False
15,2,214.89534359998652,star,"(-480.0, 270.0)",0,1247.9224999988219,1247.9110999993281,True,False
15,2,214.91134479999891,star,"(-480.0, 270.0)",0,1263.923700011219,1263.9123000117252,True,False
15,2,214.92790669998794,star,"(-480.0, 270.0)",0,1280.4856000002474,1280.4742000007536,True,False
15,2,214.94572179998795,star,"(-480.0, 270.0)",0,1298.3007000002544,1298.2893000007607,True,False
15,2,214.96165979999932,star,"(-480.0, 270.0)",0,1314.2387000116287,1314.227300012135,True,False
15,2,214.97899349998625,star,"(-480.0, 270.0)",0,1331.5723999985494,1331.5609999990556,True,False
15,2,214.9948536999873,star,"(-480.0, 270.0)",0,1347.4325999995926,1347.421200000099,True,False
15,2,215.01206339999044,star,"(-480.0, 270.0)",0,1364.6423000027426,1364.6309000032488,True,False
15,2,215.02808549998736,star,"(-480.0, 270.0)",0,1380.6643999996595,1380.6530000001658,True,False
15,2,215.04560339999443,star,"(-480.0, 270.0)",0,1398.182300006738,1398.1709000072442,True,False
15,2,215.061572599996,star,"(-480.0, 270.0)",0,1414.1515000083018,1414.140100008808,True,False
15,2,215.0789492999902,star,"(-480.0, 270.0)",0,1431.5282000025036,1431.5168000030098,True,False
15,2,215.09443439998722,star,"(-480.0, 270.0)",0,1447.0132999995258,1447.001900000032,True,False
15,2,215.11197799998627,star,"(-480.0, 270.0)",0,1464.5568999985699,1464.5454999990761,True,False
15,2,215.12819169998693,star,"(-480.0, 270.0)",0,1480.7705999992322,1480.7591999997385,True,False
15,2,215.1452191999997,star,"(-480.0, 270.0)",0,1497.7981000120053,1497.7867000125116,True,False
15,2,215.16138899998623,star,"(-480.0, 270.0)",0,1513.9678999985335,1513.9564999990398,True,False
15,2,215.17790869998862,star,"(-480.0, 270.0)",0,1530.4876000009244,1530.4762000014307,True,False
15,2,215.1797261999891,t,"(480.0, 270.0)",266.3717999967048,1532.3051000013947,1532.293700001901,True,False
15,2,215.19841209999868,t,"(480.0, 270.0)",0,1550.9910000109812,1550.9796000114875,True,False
15,2,215.21146159998898,t,"(480.0, 270.0)",0,1564.0405000012834,1564.0291000017896,True,False
15,2,215.22870159999002,t,"(480.0, 270.0)",0,1581.2805000023218,1581.269100002828,True,False
15,2,215.24463399998785,t,"(480.0, 270.0)",0,1597.2129000001587,1597.201500000665,True,False
15,2,215.2619401999982,t,"(480.0, 270.0)",0,1614.5191000105115,1614.5077000110177,True,False
15,2,215.27814389999548,t,"(480.0, 270.0)",0,1630.7228000077885,1630.7114000082947,True,False
15,2,215.29555349999282,t,"(480.0, 270.0)",0,1648.1324000051245,1648.1210000056308,True,False
15,2,215.3115967999911,t,"(480.0, 270.0)",0,1664.1757000033977,1664.164300003904,True,False
15,2,215.32939929999702,t,"(480.0, 270.0)",0,1681.9782000093255,1681.9668000098318,True,False
15,2,215.34421529999236,t,"(480.0, 270.0)",0,1696.7942000046605,1696.7828000051668,True,False
15,2,215.36183319998963,t,"(480.0, 270.0)",0,1714.4121000019368,1714.400700002443,True,False
15,2,215.37788349999755,t,"(480.0, 270.0)",0,1730.4624000098556,1730.451000010362,True,False
15,2,215.3953091000003,t,"(480.0, 270.0)",0,1747.8880000126082,1747.8766000131145,True,False
15,2,215.41124489999493,t,"(480.0, 270.0)",0,1763.8238000072306,1763.8124000077369,True,False
15,2,215.42830399998638,t,"(480.0, 270.0)",0,1780.8828999986872,1780.8714999991935,True,False
15,2,216.27818969999498,star,"(-480.0, 270.0)",251.20610000158194,2630.7686000072863,2630.7572000077926,False,True
15,3,216.54500189999817,star,"(-480.0, 270.0)",263.7867000012193,2897.5808000104735,266.8122000031872,True,False
15,3,216.56256379999104,star,"(-480.0, 270.0)",0,2915.1427000033436,284.37409999605734,True,False
15,3,216.5786059999955,star,"(-480.0, 270.0)",0,2931.1849000077927,300.41630000050645,True,False
15,3,216.59448419998807,star,"(-480.0, 270.0)",0,2947.0631000003777,316.29449999309145,True,False
15,3,216.61141129999305,star,"(-480.0, 270.0)",0,2963.9902000053553,333.221599998069,True,False
15,3,216.62770429998636,star,"(-480.0, 270.0)",0,2980.2831999986665,349.51459999138024,True,False
15,3,216.64482289999432,star,"(-480.0, 270.0)",0,2997.401800006628,366.63319999934174,True,False
15,3,216.66086769998947,star,"(-480.0, 270.0)",0,3013.446600001771,382.6779999944847,True,False
15,3,216.67796269999235,star,"(-480.0, 270.0)",0,3030.5416000046534,399.77299999736715,True,False
15,3,216.69407509999292,star,"(-480.0, 270.0)",0,3046.654000005219,415.88539999793284,True,False
15,3,216.7114763999998,star,"(-480.0, 270.0)",0,3064.0553000121145,433.28670000482816,True,False
15,3,216.7274824999913,star,"(-480.0, 270.0)",0,3080.061400003615,449.29279999632854,True,False
15,3,216.74485139999888,star,"(-480.0, 270.0)",0,3097.430300011183,466.66170000389684,True,False
15,3,216.76058729999932,star,"(-480.0, 270.0)",0,3113.1662000116194,482.39760000433307,True,False
15,3,216.7781716999889,star,"(-480.0, 270.0)",0,3130.7506000011927,499.98199999390636,True,False
15,3,216.79416639999545,star,"(-480.0, 270.0)",0,3146.745300007751,515.9767000004649,True,False
15,3,216.81172439998772,star,"(-480.0, 270.0)",0,3164.3033000000287,533.5346999927424,True,False
15,3,216.82746169999882,star,"(-480.0, 270.0)",0,3180.040600011125,549.2720000038389,True,False
15,3,216.84515049999754,star,"(-480.0, 270.0)",0,3197.729400009848,566.9608000025619,True,False
15,3,216.86089119999087,star,"(-480.0, 270.0)",0,3213.4701000031782,582.7014999958919,True,False
15,3,216.87805509999453,star,"(-480.0, 270.0)",0,3230.6340000068303,599.865399999544,True,False
15,3,216.89424479998706,star,"(-480.0, 270.0)",0,3246.823699999368,616.0550999920815,True,False
15,3,216.911354699987,star,"(-480.0, 270.0)",0,3263.933599999291,633.1649999920046,True,False
15,3,216.92758879999747,star,"(-480.0, 270.0)",0,3280.1677000097698,649.3991000024835,True,False
15,3,216.94438349999837,star,"(-480.0, 270.0)",0,3296.9624000106705,666.1938000033842,True,False
15,3,216.95981079999183,star,"(-480.0, 270.0)",0,3312.3897000041325,681.6210999968462,True,False
15,3,216.97687769999902,star,"(-480.0, 270.0)",0,3329.4566000113264,698.6880000040401,True,False
15,3,216.99423129999195,star,"(-480.0, 270.0)",0,3346.8102000042563,716.04159999697,True,False
15,3,217.0114665000001,star,"(-480.0, 270.0)",0,3364.045400012401,733.2768000051146,True,False
15,3,217.02744049999455,star,"(-480.0, 270.0)",0,3380.0194000068586,749.2507999995723,True,False
15,3,217.04497569998784,star,"(-480.0, 270.0)",0,3397.5546000001486,766.7859999928623,True,False
15,3,217.0610686,star,"(-480.0, 270.0)",0,3413.6475000123028,782.8789000050165,True,False
15,3,217.07793049998872,star,"(-480.0, 270.0)",0,3430.5094000010286,799.7407999937423,True,False
15,3,217.09430019999854,star,"(-480.0, 270.0)",0,3446.8791000108467,816.1105000035604,True,False
15,3,217.111090099992,star,"(-480.0, 270.0)",0,3463.669000004302,832.9003999970155,True,False
15,3,217.12728809998953,star,"(-480.0, 270.0)",0,3479.867000001832,849.0983999945456,True,False
15,3,217.14481539999542,star,"(-480.0, 270.0)",0,3497.394300007727,866.6257000004407,True,False
15,3,217.1607750999974,star,"(-480.0, 270.0)",0,3513.3540000097128,882.5854000024265,True,False
15,3,217.17760439999984,star,"(-480.0, 270.0)",0,3530.1833000121405,899.4147000048542,True,False
15,3,217.1937670999905,star,"(-480.0, 270.0)",0,3546.3460000028135,915.5773999955272,True,False
15,3,217.21105929999612,star,"(-480.0, 270.0)",0,3563.638200008427,932.8696000011405,True,False
15,3,217.22735839999223,star,"(-480.0, 270.0)",0,3579.9373000045307,949.1686999972444,True,False
15,3,217.24468879999768,star,"(-480.0, 270.0)",0,3597.2677000099793,966.499100002693,True,False
15,3,217.26116889998957,star,"(-480.0, 270.0)",0,3613.7478000018746,982.9791999945883,True,False
15,3,217.27877229999285,star,"(-480.0, 270.0)",0,3631.351200005156,1000.5825999978697,True,False
15,3,217.29450919998635,star,"(-480.0, 270.0)",0,3647.088099998655,1016.3194999913685,True,False
15,3,217.31117339999764,star,"(-480.0, 270.0)",0,3663.7523000099463,1032.98370000266,True,False
15,3,217.3275028999924,star,"(-480.0, 270.0)",0,3680.0818000047,1049.313199997414,True,False
15,3,217.3448059999937,star,"(-480.0, 270.0)",0,3697.384900006,1066.6162999987137,True,False
15,3,217.3606834999955,star,"(-480.0, 270.0)",0,3713.2624000078067,1082.4938000005204,True,False
15,3,217.3778908999957,star,"(-480.0, 270.0)",0,3730.469800007995,1099.701200000709,True,False
15,3,217.3940173999872,star,"(-480.0, 270.0)",0,3746.59629999951,1115.8276999922236,True,False
15,3,217.41080879999208,star,"(-480.0, 270.0)",0,3763.3877000043867,1132.6190999971004,True,False
15,3,217.42643949999183,star,"(-480.0, 270.0)",0,3779.0184000041336,1148.2497999968473,True,False
15,3,217.4445410999906,star,"(-480.0, 270.0)",0,3797.1200000029057,1166.3513999956194,True,False
15,3,217.45991829999548,star,"(-480.0, 270.0)",0,3812.4972000077832,1181.728600000497,True,False
15,3,217.47798929999408,star,"(-480.0, 270.0)",0,3830.5682000063825,1199.7995999990962,True,False
15,3,217.4943951999885,star,"(-480.0, 270.0)",0,3846.974100000807,1216.2054999935208,True,False
15,3,217.51124429999618,star,"(-480.0, 270.0)",0,3863.8232000084827,1233.0546000011964,True,False
15,3,217.52731229999335,star,"(-480.0, 270.0)",0,3879.891200005659,1249.1225999983726,True,False
15,3,217.54483159999654,star,"(-480.0, 270.0)",0,3897.4105000088457,1266.6419000015594,True,False
15,3,217.56058839999605,star,"(-480.0, 270.0)",0,3913.167300008354,1282.3987000010675,True,False
15,3,217.57784899999388,star,"(-480.0, 270.0)",0,3930.4279000061797,1299.6592999988934,True,False
15,3,217.59411309999996,star,"(-480.0, 270.0)",0,3946.6920000122627,1315.9234000049764,True,False
15,3,217.61135239999567,star,"(-480.0, 270.0)",0,3963.931300007971,1333.1627000006847,True,False
15,3,217.62713319998875,star,"(-480.0, 270.0)",0,3979.712100001052,1348.9434999937657,True,False
15,3,217.64491439999256,star,"(-480.0, 270.0)",0,3997.4933000048622,1366.724699997576,True,False
15,3,217.6605026999896,star,"(-480.0, 270.0)",0,4013.0816000018967,1382.3129999946104,True,False
15,3,217.67709849998937,star,"(-480.0, 270.0)",0,4029.677400001674,1398.9087999943877,True,False
15,3,217.69372729999304,star,"(-480.0, 270.0)",0,4046.306200005347,1415.5375999980606,True,False
15,3,217.71117109998886,star,"(-480.0, 270.0)",0,4063.750000001164,1432.9813999938779,True,False
15,3,217.72700479999185,star,"(-480.0, 270.0)",0,4079.58370000415,1448.8150999968639,True,False
15,3,217.74459379998734,star,"(-480.0, 270.0)",0,4097.172699999646,1466.40409999236,True,False
15,3,217.75993589998689,star,"(-480.0, 270.0)",0,4112.51479999919,1481.7461999919033,True,False
15,3,217.77767029999814,star,"(-480.0, 270.0)",0,4130.249200010439,1499.480600003153,True,False
15,3,217.79420919998665,star,"(-480.0, 270.0)",0,4146.7880999989575,1516.0194999916712,True,False
15,3,217.816049999994,star,"(-480.0, 270.0)",0,4168.628900006297,1537.8602999990107,True,False
15,3,217.8286020999949,star,"(-480.0, 270.0)",0,4181.1810000072,1550.4123999999138,True,False
15,3,217.84504819998983,star,"(-480.0, 270.0)",0,4197.627100002137,1566.8584999948507,True,False
15,3,217.86067779999576,star,"(-480.0, 270.0)",0,4213.25670000806,1582.4881000007736,True,False
15,3,217.8778178999928,star,"(-480.0, 270.0)",0,4230.39680000511,1599.6281999978237,True,False
15,3,217.89320829999633,star,"(-480.0, 270.0)",0,4245.787200008635,1615.0186000013491,True,False
15,3,217.9107173999946,star,"(-480.0, 270.0)",0,4263.296300006914,1632.5276999996277,True,False
15,3,217.92700649998733,star,"(-480.0, 270.0)",0,4279.5853999996325,1648.8167999923462,True,False
15,3,217.94450589999906,star,"(-480.0, 270.0)",0,4297.084800011362,1666.3162000040757,True,False
15,3,217.96077289999812,star,"(-480.0, 270.0)",0,4313.351800010423,1682.5832000031369,True,False
15,3,217.9777740999998,star,"(-480.0, 270.0)",0,4330.35300001211,1699.5844000048237,True,False
15,3,217.9943854999874,star,"(-480.0, 270.0)",0,4346.964399999706,1716.1957999924198,True,False
15,3,218.01109479999286,star,"(-480.0, 270.0)",0,4363.673700005165,1732.905099997879,True,False
15,3,218.02689309998823,star,"(-480.0, 270.0)",0,4379.472000000533,1748.7033999932464,True,False
15,3,218.04467149999982,star,"(-480.0, 270.0)",0,4397.250400012126,1766.48180000484,True,False
15,3,218.06074769998668,star,"(-480.0, 270.0)",0,4413.326599998982,1782.5579999916954,True,False
15,3,218.0776007999957,star,"(-480.0, 270.0)",0,4430.179700008011,1799.4111000007251,True,False
15,3,221.87636869998823,circle,"(-480.0, -270.0)",250.69679999432992,8228.947600000538,5598.178999993252,False,True
15,4,228.07511979999254,star,"(-480.0, 270.0)",250.1849999971455,14427.69870000484,6198.751100004301,False,True
16,1,232.21127829999023,circle,"(-480.0, -270.0)",0,0.013999990187585354,0.013999990187585354,False,True
16,2,232.47465059999377,star,"(-480.0, 270.0)",261.57220000459347,263.3862999937264,263.37230000353884,True,False
16,2,232.49312019998615,star,"(-480.0, 270.0)",0,281.8558999861125,281.8418999959249,True,False
16,2,232.50673239999742,star,"(-480.0, 270.0)",0,295.4680999973789,295.4541000071913,True,False
16,2,232.52396029999363,star,"(-480.0, 270.0)",0,312.69599999359343,312.68200000340585,True,False
16,2,232.5408494999865,star,"(-480.0, 270.0)",0,329.58519998646807,329.5711999962805,True,False
16,2,232.55665349999617,star,"(-480.0, 270.0)",0,345.38919999613427,345.3752000059467,True,False
16,2,232.57393509999383,star,"(-480.0, 270.0)",0,362.6707999937935,362.6568000036059,True,False
16,2,232.58998189998965,star,"(-480.0, 270.0)",0,378.7175999896135,378.70359999942593,True,False
16,2,232.60763709999446,star,"(-480.0, 270.0)",0,396.372799994424,396.3588000042364,True,False
16,2,232.623929399997,star,"(-480.0, 270.0)",0,412.665099996957,412.6511000067694,True,False
16,2,232.64139279999654,star,"(-480.0, 270.0)",0,430.12849999649916,430.1145000063116,True,False
16,2,232.65691459999653,star,"(-480.0, 270.0)",0,445.65029999648686,445.6363000062993,True,False
16,2,232.67439969998668,star,"(-480.0, 270.0)",0,463.13539998664055,463.12139999645296,True,False
16,2,232.69066649999877,star,"(-480.0, 270.0)",0,479.4021999987308,479.3882000085432,True,False
16,2,232.70759249999537,star,"(-480.0, 270.0)",0,496.3281999953324,496.3142000051448,True,False
16,2,232.7237763999874,star,"(-480.0, 270.0)",0,512.5120999873616,512.498099997174,True,False
16,2,232.74072689999593,star,"(-480.0, 270.0)",0,529.4625999958953,529.4486000057077,True,False
16,2,232.75666279999132,star,"(-480.0, 270.0)",0,545.3984999912791,545.3845000010915,True,False
16,2,232.77380299998913,star,"(-480.0, 270.0)",0,562.5386999890907,562.5246999989031,True,False
16,2,232.79010389999894,star,"(-480.0, 270.0)",0,578.8395999989007,578.8256000087131,True,False
16,2,232.80775079999876,star,"(-480.0, 270.0)",0,596.4864999987185,596.4725000085309,True,False
16,2,232.82376179999846,star,"(-480.0, 270.0)",0,612.4974999984261,612.4835000082385,True,False
16,2,232.84124479998718,star,"(-480.0, 270.0)",0,629.9804999871412,629.9664999969536,True,False
16,2,232.85677229998691,star,"(-480.0, 270.0)",0,645.5079999868758,645.4939999966882,True,False
16,2,232.87411999999313,star,"(-480.0, 270.0)",0,662.8556999930879,662.8417000029003,True,False
16,2,232.89052519999677,star,"(-480.0, 270.0)",0,679.2608999967342,679.2469000065466,True,False
16,2,232.90689299999212,star,"(-480.0, 270.0)",0,695.6286999920849,695.6147000018973,True,False
16,2,232.9089760999923,circle,"(-480.0, -270.0)",265.843400004087,697.7117999922484,697.6978000020608,True,False
16,2,232.92618919999222,circle,"(-480.0, -270.0)",0,714.9248999921838,714.9109000019962,True,False
16,2,232.94085479999194,circle,"(-480.0, -270.0)",0,729.5904999919003,729.5765000017127,True,False
16,2,232.95777009999438,circle,"(-480.0, -270.0)",0,746.5057999943383,746.4918000041507,True,False
16,2,232.9745971999946,circle,"(-480.0, -270.0)",0,763.3328999945661,763.3189000043785,True,False
16,2,232.98988529999042,circle,"(-480.0, -270.0)",0,778.6209999903804,778.6070000001928,True,False
16,2,233.0075502999971,circle,"(-480.0, -270.0)",0,796.2859999970533,796.2720000068657,True,False
16,2,233.02303689999098,circle,"(-480.0, -270.0)",0,811.7725999909453,811.7586000007577,True,False
16,2,233.0398664999957,circle,"(-480.0, -270.0)",0,828.6021999956574,828.5882000054698,True,False
16,2,233.05612039999687,circle,"(-480.0, -270.0)",0,844.8560999968322,844.8421000066446,True,False
16,2,233.07360279999557,circle,"(-480.0, -270.0)",0,862.3384999955306,862.324500005343,True,False
16,2,233.09000639998703,circle,"(-480.0, -270.0)",0,878.7420999869937,878.7280999968061,True,False
16,2,233.10709179998958,circle,"(-480.0, -270.0)",0,895.8274999895366,895.813499999349,True,False
16,2,233.12340119999135,circle,"(-480.0, -270.0)",0,912.1368999913102,912.1229000011226,True,False
16,2,233.14073709999502,circle,"(-480.0, -270.0)",0,929.4727999949828,929.4588000047952,True,False
16,2,233.15773739998986,circle,"(-480.0, -270.0)",0,946.4730999898165,946.459099999629,True,False
16,2,233.17402669999865,circle,"(-480.0, -270.0)",0,962.7623999986099,962.7484000084223,True,False
16,2,233.19019619999744,circle,"(-480.0, -270.0)",0,978.9318999974057,978.9179000072181,True,False
16,2,233.2072221999988,circle,"(-480.0, -270.0)",0,995.9578999987571,995.9439000085695,True,False
16,2,233.22395949999918,circle,"(-480.0, -270.0)",0,1012.6951999991434,1012.6812000089558,True,False
16,2,233.24071399999957,circle,"(-480.0, -270.0)",0,1029.4496999995317,1029.4357000093441,True,False
16,2,233.25657599999977,circle,"(-480.0, -270.0)",0,1045.3116999997292,1045.2977000095416,True,False
16,2,233.2743541999953,circle,"(-480.0, -270.0)",0,1063.0898999952478,1063.0759000050602,True,False
16,2,233.2916824999993,circle,"(-480.0, -270.0)",0,1080.418199999258,1080.4042000090703,True,False
16,2,233.30758049999713,circle,"(-480.0, -270.0)",0,1096.3161999970907,1096.3022000069031,True,False
16,2,233.32346279999183,circle,"(-480.0, -270.0)",0,1112.1984999917913,1112.1845000016037,True,False
16,2,233.34025119998842,circle,"(-480.0, -270.0)",0,1128.9868999883765,1128.972899998189,True,False
16,2,233.3564655999944,circle,"(-480.0, -270.0)",0,1145.201299994369,1145.1873000041815,True,False
16,2,233.37414559999888,circle,"(-480.0, -270.0)",0,1162.881299998844,1162.8673000086565,True,False
16,2,233.38965059998736,circle,"(-480.0, -270.0)",0,1178.3862999873236,1178.372299997136,True,False
16,2,233.40922049999062,circle,"(-480.0, -270.0)",0,1197.9561999905854,1197.9422000003979,True,False
16,2,233.4243565999932,circle,"(-480.0, -270.0)",0,1213.09229999315,1213.0783000029624,True,False
16,2,233.4410998999956,circle,"(-480.0, -270.0)",0,1229.8355999955675,1229.8216000053799,True,False
16,2,233.45737029999145,circle,"(-480.0, -270.0)",0,1246.1059999914141,1246.0920000012266,True,False
16,2,233.47381229999883,circle,"(-480.0, -270.0)",0,1262.5479999987874,1262.5340000085998,True,False
16,2,233.49026089999825,circle,"(-480.0, -270.0)",0,1278.9965999982087,1278.982600008021,True,False
16,2,233.50709780000034,circle,"(-480.0, -270.0)",0,1295.833500000299,1295.8195000101114,True,False
16,2,233.5223687999969,circle,"(-480.0, -270.0)",0,1311.1044999968726,1311.090500006685,True,False
16,2,233.54499229999783,circle,"(-480.0, -270.0)",0,1333.727999997791,1333.7140000076033,True,False
16,2,233.55645959998947,circle,"(-480.0, -270.0)",0,1345.1952999894274,1345.1812999992399,True,False
16,2,233.57261069999367,circle,"(-480.0, -270.0)",0,1361.3463999936357,1361.3324000034481,True,False
16,2,233.5894294999889,circle,"(-480.0, -270.0)",0,1378.1651999888709,1378.1511999986833,True,False
16,2,233.60641409999516,circle,"(-480.0, -270.0)",0,1395.1497999951243,1395.1358000049368,True,False
16,2,233.62245229999826,circle,"(-480.0, -270.0)",0,1411.1879999982193,1411.1740000080317,True,False
16,2,233.63967689999845,circle,"(-480.0, -270.0)",0,1428.4125999984099,1428.3986000082223,True,False
16,2,233.65624109999044,circle,"(-480.0, -270.0)",0,1444.9767999903997,1444.9628000002122,True,False
16,2,233.67405029998918,circle,"(-480.0, -270.0)",0,1462.785999989137,1462.7719999989495,True,False
16,2,233.6907402999932,circle,"(-480.0, -270.0)",0,1479.4759999931557,1479.4620000029681,True,False
16,2,233.70771799999056,circle,"(-480.0, -270.0)",0,1496.453699990525,1496.4397000003373,True,False
16,2,233.72305609998875,circle,"(-480.0, -270.0)",0,1511.791799988714,1511.7777999985265,True,False
16,2,233.74039369999082,circle,"(-480.0, -270.0)",0,1529.1293999907793,1529.1154000005918,True,False
16,2,233.7569371999998,circle,"(-480.0, -270.0)",0,1545.6728999997722,1545.6589000095846,True,False
16,2,233.77390439999,circle,"(-480.0, -270.0)",0,1562.6400999899488,1562.6260999997612,True,False
16,2,233.78963669999212,circle,"(-480.0, -270.0)",0,1578.3723999920767,1578.358400001889,True,False
16,2,233.80689579999307,circle,"(-480.0, -270.0)",0,1595.6314999930328,1595.6175000028452,True,False
16,2,233.82243069999095,circle,"(-480.0, -270.0)",0,1611.166399990907,1611.1524000007194,True,False
16,2,233.84011309999914,circle,"(-480.0, -270.0)",0,1628.8487999991048,1628.8348000089172,True,False
16,2,233.85626769998635,circle,"(-480.0, -270.0)",0,1645.003399986308,1644.9893999961205,True,False
16,2,233.87285779998638,circle,"(-480.0, -270.0)",0,1661.5934999863384,1661.5794999961508,True,False
16,2,233.88919579998765,circle,"(-480.0, -270.0)",0,1677.9314999876078,1677.9174999974202,True,False
16,2,233.90717549998953,circle,"(-480.0, -270.0)",0,1695.9111999894958,1695.8971999993082,True,False
16,2,233.92305879999185,circle,"(-480.0, -270.0)",0,1711.7944999918109,1711.7805000016233,True,False
16,2,233.9404291999963,circle,"(-480.0, -270.0)",0,1729.164899996249,1729.1509000060614,True,False
16,2,233.9561332999874,circle,"(-480.0, -270.0)",0,1744.868999987375,1744.8549999971874,True,False
16,2,233.97353399998974,circle,"(-480.0, -270.0)",0,1762.2696999897016,1762.255699999514,True,False
16,2,233.99025549998623,circle,"(-480.0, -270.0)",0,1778.9911999861943,1778.9771999960067,True,False
17,1,239.50761579998652,circle,"(-480.0, -270.0)",0,0.02239999594166875,0.02239999594166875,False,True
17,2,240.12253229999624,circle,"(-480.0, -270.0)",267.1396000077948,614.9389000056544,614.9165000097128,True,False
17,2,240.1417991999915,circle,"(-480.0, -270.0)",0,634.2058000009274,634.1834000049857,True,False
17,2,240.15464479998627,circle,"(-480.0, -270.0)",0,647.0513999956893,647.0289999997476,True,False
17,2,240.17142669999157,circle,"(-480.0, -270.0)",0,663.833300000988,663.8109000050463,True,False
17,2,240.18845279999368,circle,"(-480.0, -270.0)",0,680.8594000031007,680.8370000071591,True,False
17,2,240.20542449998902,circle,"(-480.0, -270.0)",0,697.8310999984387,697.8087000024971,True,False
17,2,240.22174119998817,circle,"(-480.0, -270.0)",0,714.1477999975905,714.1254000016488,True,False
17,2,240.23859489998722,circle,"(-480.0, -270.0)",0,731.001499996637,730.9791000006953,True,False
17,2,240.2550263999874,circle,"(-480.0, -270.0)",0,747.4329999968177,747.410600000876,True,False
17,2,240.27193049999187,circle,"(-480.0, -270.0)",0,764.3371000012849,764.3147000053432,True,False
17,2,240.2884914999886,circle,"(-480.0, -270.0)",0,780.8980999980122,780.8757000020705,True,False
17,2,240.30555699999968,circle,"(-480.0, -270.0)",0,797.9636000090977,797.941200013156,True,False
17,2,240.32084389998636,circle,"(-480.0, -270.0)",0,813.2504999957746,813.2280999998329,True,False
17,2,240.33930169999076,circle,"(-480.0, -270.0)",0,831.708300000173,831.6859000042314,True,False
17,2,240.3547491999925,circle,"(-480.0, -270.0)",0,847.1558000019286,847.1334000059869,True,False
17,2,240.37163559999317,circle,"(-480.0, -270.0)",0,864.0422000025865,864.0198000066448,True,False
17,2,240.38866759999655,circle,"(-480.0, -270.0)",0,881.074200005969,881.0518000100274,True,False
17,2,240.40484459999425,circle,"(-480.0, -270.0)",0,897.2512000036659,897.2288000077242,True,False
17,2,240.42128889999003,circle,"(-480.0, -270.0)",0,913.6954999994487,913.673100003507,True,False
17,2,240.4393504999898,circle,"(-480.0, -270.0)",0,931.7570999992313,931.7347000032896,True,False
17,2,240.4555502999865,circle,"(-480.0, -270.0)",0,947.9568999959156,947.9344999999739,True,False
17,2,240.4719810999959,circle,"(-480.0, -270.0)",0,964.387700005318,964.3653000093764,True,False
17,2,240.48898799999733,circle,"(-480.0, -270.0)",0,981.3946000067517,981.37220001081,True,False
17,2,240.50525749998633,circle,"(-480.0, -270.0)",0,997.6640999957453,997.6416999998037,True,False
17,2,240.52197899999737,circle,"(-480.0, -270.0)",0,1014.3856000067899,1014.3632000108482,True,False
17,2,240.5389603999938,circle,"(-480.0, -270.0)",0,1031.367000003229,1031.3446000072872,True,False
17,2,240.5546561999945,circle,"(-480.0, -270.0)",0,1047.0628000039142,1047.0404000079725,True,False
17,2,240.5713989999931,circle,"(-480.0, -270.0)",0,1063.8056000025244,1063.7832000065828,True,False
17,2,240.5884720999893,circle,"(-480.0, -270.0)",0,1080.8786999987205,1080.8563000027789,True,False
17,2,240.6051710999891,circle,"(-480.0, -270.0)",0,1097.57769999851,1097.5553000025684,True,False
17,2,240.62110609999218,circle,"(-480.0, -270.0)",0,1113.5127000015927,1113.490300005651,True,False
17,2,240.63865229999647,circle,"(-480.0, -270.0)",0,1131.0589000058826,1131.036500009941,True,False
17,2,240.65446130000055,circle,"(-480.0, -270.0)",0,1146.8679000099655,1146.8455000140239,True,False
17,2,240.67143259999284,circle,"(-480.0, -270.0)",0,1163.8392000022577,1163.816800006316,True,False
17,2,240.68816429999424,circle,"(-480.0, -270.0)",0,1180.5709000036586,1180.548500007717,True,False
17,2,240.70543999999063,circle,"(-480.0, -270.0)",0,1197.846600000048,1197.8242000041064,True,False
17,2,240.7219092999876,circle,"(-480.0, -270.0)",0,1214.3158999970183,1214.2935000010766,True,False
17,2,240.7390946999949,circle,"(-480.0, -270.0)",0,1231.501300004311,1231.4789000083692,True,False
17,2,240.75422839999374,circle,"(-480.0, -270.0)",0,1246.6350000031525,1246.6126000072109,True,False
17,2,240.77174149999337,circle,"(-480.0, -270.0)",0,1264.1481000027852,1264.1257000068435,True,False
17,2,240.78746749999118,circle,"(-480.0, -270.0)",0,1279.8741000005975,1279.8517000046559,True,False
17,2,240.80474019999383,circle,"(-480.0, -270.0)",0,1297.1468000032473,1297.1244000073057,True,False
17,2,240.82163729998865,circle,"(-480.0, -270.0)",0,1314.0438999980688,1314.0215000021271,True,False
17,2,240.838728799994,circle,"(-480.0, -270.0)",0,1331.1354000034044,1331.1130000074627,True,False
17,2,240.85404509998625,circle,"(-480.0, -270.0)",0,1346.4516999956686,1346.429299999727,True,False
17,2,240.87263799998618,circle,"(-480.0, -270.0)",0,1365.0445999955991,1365.0221999996575,True,False
17,2,240.88864619999367,circle,"(-480.0, -270.0)",0,1381.05280000309,1381.0304000071483,True,False
17,2,240.90535759998602,circle,"(-480.0, -270.0)",0,1397.7641999954358,1397.741799999494,True,False
17,2,240.92072429999826,circle,"(-480.0, -270.0)",0,1413.1309000076726,1413.108500011731,True,False
17,2,240.93913499999326,circle,"(-480.0, -270.0)",0,1431.5416000026744,1431.5192000067327,True,False
17,2,240.9554913999891,circle,"(-480.0, -270.0)",0,1447.8979999985313,1447.8756000025896,True,False
17,2,240.97192379999615,circle,"(-480.0, -270.0)",0,1464.330400005565,1464.3080000096234,True,False
17,2,240.98853639999288,circle,"(-480.0, -270.0)",0,1480.9430000022985,1480.9206000063568,True,False
17,2,241.00516459999199,circle,"(-480.0, -270.0)",0,1497.5712000014028,1497.548800005461,True,False
17,2,241.0202358999959,circle,"(-480.0, -270.0)",0,1512.6425000053132,1512.6201000093715,True,False
17,2,241.03897709999,circle,"(-480.0, -270.0)",0,1531.3836999994237,1531.361300003482,True,False
17,2,241.05363649998617,circle,"(-480.0, -270.0)",0,1546.043099995586,1546.0206999996444,True,False
17,2,241.07074999999895,circle,"(-480.0, -270.0)",0,1563.1566000083694,1563.1342000124278,True,False
17,2,241.0881301999907,circle,"(-480.0, -270.0)",0,1580.536800000118,1580.5144000041764,True,False
17,2,241.10512279999966,circle,"(-480.0, -270.0)",0,1597.5294000090798,1597.5070000131382,True,False
17,2,241.1214515999891,circle,"(-480.0, -270.0)",0,1613.8581999985036,1613.8358000025619,True,False
17,2,241.1389746999921,circle,"(-480.0, -270.0)",0,1631.3813000015216,1631.35890000558,True,False
17,2,241.15505759998632,circle,"(-480.0, -270.0)",0,1647.4641999957385,1647.4417999997968,True,False
17,2,241.17152489999717,circle,"(-480.0, -270.0)",0,1663.9315000065835,1663.9091000106419,True,False
17,2,241.18814369999745,circle,"(-480.0, -270.0)",0,1680.550300006871,1680.5279000109294,True,False
17,2,241.2052144999907,circle,"(-480.0, -270.0)",0,1697.6211000001058,1697.5987000041641,True,False
17,2,241.22167739999713,circle,"(-480.0, -270.0)",0,1714.084000006551,1714.0616000106093,True,False
17,2,241.2386162999901,circle,"(-480.0, -270.0)",0,1731.022899999516,1731.0005000035744,True,False
17,2,241.25497629999882,circle,"(-480.0, -270.0)",0,1747.3829000082333,1747.3605000122916,True,False
17,2,241.27200249998714,circle,"(-480.0, -270.0)",0,1764.4090999965556,1764.386700000614,True,False
17,2,241.28699959999358,circle,"(-480.0, -270.0)",0,1779.4062000029953,1779.3838000070537,True,False
17,2,241.30502629998955,circle,"(-480.0, -270.0)",0,1797.4328999989666,1797.410500003025,True,False
17,2,243.9034845999995,cross,"(480.0, -270.0)",251.55010000162292,4395.8912000089185,4395.868800012977,False,True
17,3,244.43709110000054,star,"(-480.0, 270.0)",251.03660000604577,4929.497700009961,533.6065000010421,True,False
17,3,244.4560238999984,star,"(-480.0, 270.0)",0,4948.430500007817,552.5392999988981,True,False
17,3,244.47079909998865,star,"(-480.0, 270.0)",0,4963.2056999980705,567.314499989152,True,False
17,3,244.48628420000023,star,"(-480.0, 270.0)",0,4978.690800009645,582.7996000007261,True,False
17,3,244.50356969999848,star,"(-480.0, 270.0)",0,4995.9763000078965,600.085099998978,True,False
17,3,244.5200014999864,star,"(-480.0, 270.0)",0,5012.40809999581,616.5168999868911,True,False
17,3,244.53666549999616,star,"(-480.0, 270.0)",0,5029.072100005578,633.1808999966597,True,False
17,3,244.55364839998947,star,"(-480.0, 270.0)",0,5046.054999998887,650.1637999899685,True,False
17,3,244.5705264999997,star,"(-480.0, 270.0)",0,5062.933100009104,667.0419000001857,True,False
17,3,244.58633199999167,star,"(-480.0, 270.0)",0,5078.738600001088,682.8473999921698,True,False
17,3,244.60374049999518,star,"(-480.0, 270.0)",0,5096.1471000046,700.2558999956818,True,False
17,3,244.61920639999153,star,"(-480.0, 270.0)",0,5111.613000000943,715.7217999920249,True,False
17,3,244.63647329999367,star,"(-480.0, 270.0)",0,5128.879900003085,732.9886999941664,True,False
17,3,244.65352169999096,star,"(-480.0, 270.0)",0,5145.928300000378,750.0370999914594,True,False
17,3,244.66976199999044,star,"(-480.0, 270.0)",0,5162.168599999859,766.2773999909405,True,False
17,3,244.68628289998742,star,"(-480.0, 270.0)",0,5178.689499996835,782.7982999879168,True,False
17,3,244.7037156999868,star,"(-480.0, 270.0)",0,5196.122299996205,800.2310999872861,True,False
17,3,244.71879339999577,star,"(-480.0, 270.0)",0,5211.200000005192,815.3087999962736,True,False
17,3,244.73685169999953,star,"(-480.0, 270.0)",0,5229.258300008951,833.3671000000322,True,False
17,3,244.75222749999375,star,"(-480.0, 270.0)",0,5244.634100003168,848.7428999942495,True,False
17,3,244.77033099999244,star,"(-480.0, 270.0)",0,5262.737600001856,866.8463999929372,True,False
17,3,244.7865918999887,star,"(-480.0, 270.0)",0,5278.998499998124,883.1072999892058,True,False
17,3,244.80394189999788,star,"(-480.0, 270.0)",0,5296.348500007298,900.4572999983793,True,False
17,3,244.81988339999225,star,"(-480.0, 270.0)",0,5312.290000001667,916.3987999927485,True,False
17,3,244.83654609999212,star,"(-480.0, 270.0)",0,5328.952700001537,933.0614999926183,True,False
17,3,244.8527419999882,star,"(-480.0, 270.0)",0,5345.1485999976285,949.25739998871,True,False
17,3,244.8701713999908,star,"(-480.0, 270.0)",0,5362.578000000212,966.6867999912938,True,False
17,3,244.8862999999983,star,"(-480.0, 270.0)",0,5378.7066000077175,982.815399998799,True,False
17,3,244.9030969999876,star,"(-480.0, 270.0)",0,5395.503599997028,999.6123999881092,True,False
17,3,244.91871859999083,star,"(-480.0, 270.0)",0,5411.125200000242,1015.2339999913238,True,False
17,3,244.93685269998969,star,"(-480.0, 270.0)",0,5429.259299999103,1033.3680999901844,True,False
17,3,244.95327169999655,star,"(-480.0, 270.0)",0,5445.678300005966,1049.7870999970473,True,False
17,3,244.96924679999938,star,"(-480.0, 270.0)",0,5461.6534000087995,1065.762199999881,True,False
17,3,244.97227439998824,cross,"(480.0, -270.0)",266.41849998850375,5464.680999997654,1068.7897999887355,True,False
17,3,244.989476799994,cross,"(480.0, -270.0)",0,5481.883400003426,1085.9921999945072,True,False
17,3,245.00351229999796,cross,"(480.0, -270.0)",0,5495.918900007382,1100.0276999984635,True,False
17,3,245.01963309998973,cross,"(480.0, -270.0)",0,5512.03969999915,1116.1484999902314,True,False
17,3,245.0368754999945,cross,"(480.0, -270.0)",0,5529.282100003911,1133.3908999949927,True,False
17,3,245.0530352999922,cross,"(480.0, -270.0)",0,5545.441900001606,1149.5506999926874,True,False
17,3,245.0697647999914,cross,"(480.0, -270.0)",0,5562.171400000807,1166.2801999918884,True,False
17,3,245.08579769999778,cross,"(480.0, -270.0)",0,5578.204300007201,1182.3130999982823,True,False
17,3,245.10336399999505,cross,"(480.0, -270.0)",0,5595.770600004471,1199.8793999955524,True,False
17,3,245.11917289999838,cross,"(480.0, -270.0)",0,5611.579500007792,1215.6882999988738,True,False
17,3,245.1366846999881,cross,"(480.0, -270.0)",0,5629.091299997526,1233.2000999886077,True,False
17,3,245.1519636999874,cross,"(480.0, -270.0)",0,5644.370299996808,1248.4790999878896,True,False
17,3,245.1703026999894,cross,"(480.0, -270.0)",0,5662.709299998824,1266.818099989905,True,False
17,3,245.18620919999375,cross,"(480.0, -270.0)",0,5678.615800003172,1282.7245999942534,True,False
17,3,245.20349019998685,cross,"(480.0, -270.0)",0,5695.896799996262,1300.0055999873439,True,False
17,3,245.2195245999901,cross,"(480.0, -270.0)",0,5711.931199999526,1316.0399999906076,True,False
17,3,245.2366437999881,cross,"(480.0, -270.0)",0,5729.050399997504,1333.159199988586,True,False
17,3,245.25226259999909,cross,"(480.0, -270.0)",0,5744.669200008502,1348.7779999995837,True,False
17,3,245.2703521999938,cross,"(480.0, -270.0)",0,5762.758800003212,1366.8675999942934,True,False
17,3,245.28652809999767,cross,"(480.0, -270.0)",0,5778.934700007085,1383.0434999981662,True,False
17,3,245.3034786999924,cross,"(480.0, -270.0)",0,5795.885300001828,1399.9940999929095,True,False
17,3,245.31969469999603,cross,"(480.0, -270.0)",0,5812.101300005452,1416.2100999965332,True,False
17,3,245.3372464999993,cross,"(480.0, -270.0)",0,5829.653100008727,1433.7618999998085,True,False
17,3,245.35210849999567,cross,"(480.0, -270.0)",0,5844.515100005083,1448.6238999961643,True,False
17,3,245.36976189998677,cross,"(480.0, -270.0)",0,5862.168499996187,1466.2772999872686,True,False
17,3,245.38626809998823,cross,"(480.0, -270.0)",0,5878.674699997646,1482.7834999887273,True,False
17,3,245.40359999999055,cross,"(480.0, -270.0)",0,5896.006599999964,1500.1153999910457,True,False
17,3,245.41932259999157,cross,"(480.0, -270.0)",0,5911.729200000991,1515.8379999920726,True,False
17,3,245.43680169999425,cross,"(480.0, -270.0)",0,5929.2083000036655,1533.317099994747,True,False
17,3,245.451971699993,cross,"(480.0, -270.0)",0,5944.378300002427,1548.4870999935083,True,False
17,3,245.47043619999022,cross,"(480.0, -270.0)",0,5962.842799999635,1566.9515999907162,True,False
17,3,245.4853715999925,cross,"(480.0, -270.0)",0,5977.7782000019215,1581.886999993003,True,False
17,3,245.50342049999745,cross,"(480.0, -270.0)",0,5995.8271000068635,1599.935899997945,True,False
17,3,245.51860619999934,cross,"(480.0, -270.0)",0,6011.012800008757,1615.1215999998385,True,False
17,3,245.53661149999243,cross,"(480.0, -270.0)",0,6029.018100001849,1633.1268999929307,True,False
17,3,245.55318179998721,cross,"(480.0, -270.0)",0,6045.588399996632,1649.6971999877132,True,False
17,3,245.56935619999422,cross,"(480.0, -270.0)",0,6061.762800003635,1665.8715999947162,True,False
17,3,245.58581039999262,cross,"(480.0, -270.0)",0,6078.2170000020415,1682.325799993123,True,False
17,3,245.60334649999277,cross,"(480.0, -270.0)",0,6095.7531000021845,1699.861899993266,True,False
17,3,245.6190026999975,cross,"(480.0, -270.0)",0,6111.409300006926,1715.5180999980075,True,False
17,3,245.6368087999872,cross,"(480.0, -270.0)",0,6129.21539999661,1733.3241999876918,True,False
17,3,245.65227429999504,cross,"(480.0, -270.0)",0,6144.6809000044595,1748.789699995541,True,False
17,3,245.6701999999932,cross,"(480.0, -270.0)",0,6162.6066000026185,1766.7153999937,True,False
18,1,259.9485558999877,circle,"(-480.0, -270.0)",0,0.029199989512562752,0.029199989512562752,False,True
18,2,264.5283012,star,"(-480.0, 270.0)",266.8363000120735,4579.774500001804,4579.745300012291,False,True
18,3,265.262126799993,star,"(-480.0, 270.0)",251.01429999631364,5313.600099994801,733.825599992997,True,False
18,3,265.2806135999999,star,"(-480.0, 270.0)",0,5332.086900001741,752.312399999937,True,False
18,3,265.29555559999426,star,"(-480.0, 270.0)",0,5347.028899996076,767.2543999942718,True,False
18,3,265.3114485999977,star,"(-480.0, 270.0)",0,5362.921899999492,783.1473999976879,True,False
18,3,265.32864719998906,star,"(-480.0, 270.0)",0,5380.1204999908805,800.3459999890765,True,False
18,3,265.3451941999956,star,"(-480.0, 270.0)",0,5396.66749999742,816.8929999956163,True,False
18,3,265.3625114999886,star,"(-480.0, 270.0)",0,5413.9847999904305,834.2102999886265,True,False
18,3,265.3783470999915,star,"(-480.0, 270.0)",0,5429.820399993332,850.0458999915281,True,False
18,3,265.3953091999865,star,"(-480.0, 270.0)",0,5446.7824999883305,867.0079999865266,True,False
18,3,265.411471799991,star,"(-480.0, 270.0)",0,5462.945099992794,883.17059999099,True,False
18,3,265.42863929999294,star,"(-480.0, 270.0)",0,5480.112599994754,900.3380999929504,True,False
18,3,265.4447935999924,star,"(-480.0, 270.0)",0,5496.266899994225,916.4923999924213,True,False
18,3,265.4617769999895,star,"(-480.0, 270.0)",0,5513.250299991341,933.4757999895373,True,False
18,3,265.47790309999255,star,"(-480.0, 270.0)",0,5529.376399994362,949.6018999925582,True,False
18,3,265.49558639999304,star,"(-480.0, 270.0)",0,5547.059699994861,967.2851999930572,True,False
18,3,265.5115614999959,star,"(-480.0, 270.0)",0,5563.034799997695,983.2602999958908,True,False
18,3,265.52919180000026,star,"(-480.0, 270.0)",0,5580.665100002079,1000.8906000002753,True,False
18,3,265.54467069999373,star,"(-480.0, 270.0)",0,5596.143999995547,1016.3694999937434,True,False
18,3,265.5623579999956,star,"(-480.0, 270.0)",0,5613.8312999974005,1034.0567999955965,True,False
18,3,265.57786359998863,star,"(-480.0, 270.0)",0,5629.336899990449,1049.5623999886448,True,False
18,3,265.5954248999915,star,"(-480.0, 270.0)",0,5646.898199993302,1067.1236999914981,True,False
18,3,265.61098229998606,star,"(-480.0, 270.0)",0,5662.455599987879,1082.6810999860754,True,False
18,3,265.6287467999937,star,"(-480.0, 270.0)",0,5680.220099995495,1100.4455999936908,True,False
18,3,265.6451678999874,star,"(-480.0, 270.0)",0,5696.641199989244,1116.8666999874404,True,False
18,3,265.66186759999255,star,"(-480.0, 270.0)",0,5713.340899994364,1133.56639999256,True,False
18,3,265.677643899995,star,"(-480.0, 270.0)",0,5729.117199996836,1149.3426999950316,True,False
18,3,265.6952542999934,star,"(-480.0, 270.0)",0,5746.727599995211,1166.9530999934068,True,False
18,3,265.71130709999125,star,"(-480.0, 270.0)",0,5762.780399993062,1183.005899991258,True,False
18,3,265.7283245999861,star,"(-480.0, 270.0)",0,5779.797899987898,1200.0233999860939,True,False
18,3,265.7447824999981,star,"(-480.0, 270.0)",0,5796.255799999926,1216.4812999981223,True,False
18,3,265.76237909999327,star,"(-480.0, 270.0)",0,5813.852399995085,1234.0778999932809,True,False
18,3,265.7780439999915,star,"(-480.0, 270.0)",0,5829.517299993313,1249.742799991509,True,False
18,3,265.7954071999993,star,"(-480.0, 270.0)",0,5846.880500001134,1267.1059999993304,True,False
18,3,265.8112048999901,star,"(-480.0, 270.0)",0,5862.678199991933,1282.903699990129,True,False
18,3,265.8286156999966,star,"(-480.0, 270.0)",0,5880.0889999984065,1300.3144999966025,True,False
18,3,265.8445342999912,star,"(-480.0, 270.0)",0,5896.007599993027,1316.2330999912228,True,False
18,3,265.8621264999965,star,"(-480.0, 270.0)",0,5913.599799998337,1333.8252999965334,True,False
18,3,265.87782329999027,star,"(-480.0, 270.0)",0,5929.296599992085,1349.5220999902813,True,False
18,3,265.89534119999735,star,"(-480.0, 270.0)",0,5946.814499999164,1367.0399999973597,True,False
18,3,265.9108261999936,star,"(-480.0, 270.0)",0,5962.299499995424,1382.5249999936204,True,False
18,3,265.92832809999527,star,"(-480.0, 270.0)",0,5979.801399997086,1400.0268999952823,True,False
18,3,265.9444575999951,star,"(-480.0, 270.0)",0,5995.930899996893,1416.1563999950886,True,False
18,3,265.96190659998683,star,"(-480.0, 270.0)",0,6013.379899988649,1433.6053999868454,True,False
18,3,265.9778607999906,star,"(-480.0, 270.0)",0,6029.334099992411,1449.5595999906072,True,False
18,3,265.9949659999984,star,"(-480.0, 270.0)",0,6046.439300000202,1466.664799998398,True,False
18,3,266.0113640999916,star,"(-480.0, 270.0)",0,6062.837399993441,1483.062899991637,True,False
18,3,266.0305253999977,star,"(-480.0, 270.0)",0,6081.998699999531,1502.2241999977268,True,False
18,3,266.04812539998966,star,"(-480.0, 270.0)",0,6099.598699991475,1519.824199989671,True,False
18,3,266.0620227999898,star,"(-480.0, 270.0)",0,6113.4960999916075,1533.7215999898035,True,False
18,3,266.07772979998845,star,"(-480.0, 270.0)",0,6129.203099990264,1549.4285999884596,True,False
18,3,266.0953477999865,star,"(-480.0, 270.0)",0,6146.821099988301,1567.0465999864973,True,False
18,3,266.1115202999936,star,"(-480.0, 270.0)",0,6162.993599995389,1583.2190999935847,True,False
18,3,266.12869159999536,star,"(-480.0, 270.0)",0,6180.16489999718,1600.3903999953764,True,False
18,3,266.14427729998715,star,"(-480.0, 270.0)",0,6195.750599988969,1615.976099987165,True,False
18,3,266.1619454999891,star,"(-480.0, 270.0)",0,6213.4187999909045,1633.6442999891005,True,False
18,3,266.17788659999496,star,"(-480.0, 270.0)",0,6229.35989999678,1649.585399994976,True,False
18,3,266.195255499988,star,"(-480.0, 270.0)",0,6246.728799989796,1666.9542999879923,True,False
18,3,266.21066959999735,star,"(-480.0, 270.0)",0,6262.142899999162,1682.3683999973582,True,False
18,3,266.2287617999973,star,"(-480.0, 270.0)",0,6280.235099999118,1700.4605999973137,True,False
18,3,266.244389399988,star,"(-480.0, 270.0)",0,6295.8626999898115,1716.0881999880075,True,False
18,3,266.261488499993,star,"(-480.0, 270.0)",0,6312.96179999481,1733.1872999930056,True,False
18,3,266.27763749999576,star,"(-480.0, 270.0)",0,6329.110799997579,1749.3362999957753,True,False
18,3,266.2949047999864,star,"(-480.0, 270.0)",0,6346.378099988215,1766.6035999864107,True,False
18,3,266.31089229999634,star,"(-480.0, 270.0)",0,6362.3655999981565,1782.5910999963526,True,False
18,3,269.42700719999266,t,"(480.0, 270.0)",265.6808000028832,9478.480499994475,4898.705999992671,False,True
18,4,275.1749131999968,star,"(-480.0, 270.0)",266.3347000052454,15226.386499998625,5747.90600000415,False,True
