trial_num,selection_num,timestamp,shape,position,fixation_duration_ms,rt_from_trial_start_ms,rt_from_previous_selection_ms,queued_selection,was_executed
13,1,190.67873679997865,circle,"(-480.0, -270.0)",0,0.011899974197149277,0.011899974197149277,False,True
14,1,197.97510399995372,circle,"(-480.0, -270.0)",0,0.014599994756281376,0.014599994756281376,False,True
15,1,212.01861289999215,circle,"(-480.0, -270.0)",0,0.011000025551766157,0.011000025551766157,False,True
15,2,212.48598749999655,circle,"(-480.0, -270.0)",263.2155000464991,467.38560002995655,467.3746000044048,True,False
15,2,212.51119309995556,circle,"(-480.0, -270.0)",0,492.59119998896495,492.5801999634132,True,False
15,2,212.52089539996814,circle,"(-480.0, -270.0)",0,502.29350000154227,502.2824999759905,True,False
15,2,212.53496849996736,circle,"(-480.0, -270.0)",0,516.3666000007652,516.3555999752134,True,False
15,2,212.55185899999924,circle,"(-480.0, -270.0)",0,533.2571000326425,533.2461000070907,True,False
15,2,212.56808169995202,circle,"(-480.0, -270.0)",0,549.47979998542,549.4687999598682,True,False
15,2,212.58464799996,circle,"(-480.0, -270.0)",0,566.0460999934003,566.0350999678485,True,False
15,2,212.60128169995733,circle,"(-480.0, -270.0)",0,582.6797999907285,582.6687999651767,True,False
15,2,212.61696999997366,circle,"(-480.0, -270.0)",0,598.3681000070646,598.3570999815129,True,False
15,2,212.63452339998912,circle,"(-480.0, -270.0)",0,615.9215000225231,615.9104999969713,True,False
15,2,212.6505732999649,circle,"(-480.0, -270.0)",0,631.9713999982923,631.9603999727406,True,False
15,2,212.66815159999533,circle,"(-480.0, -270.0)",0,649.5497000287287,649.5387000031769,True,False
15,2,212.68395059998147,circle,"(-480.0, -270.0)",0,665.3487000148743,665.3376999893226,True,False
15,2,212.70184709999012,circle,"(-480.0, -270.0)",0,683.2452000235207,683.234199997969,True,False
15,2,212.71730229997775,circle,"(-480.0, -270.0)",0,698.7004000111483,698.6893999855965,True,False
15,2,212.73563379998086,circle,"(-480.0, -270.0)",0,717.0319000142626,717.0208999887109,True,False
15,2,212.75219209998613,circle,"(-480.0, -270.0)",0,733.5902000195347,733.5791999939829,True,False
15,2,212.76818239997374,circle,"(-480.0, -270.0)",0,749.5805000071414,749.5694999815896,True,False
15,2,212.784669799963,circle,"(-480.0, -270.0)",0,766.0678999964148,766.056899970863,True,False
15,2,212.80207829998108,circle,"(-480.0, -270.0)",0,783.4764000144787,783.465399988927,True,False
15,2,212.8168214999605,circle,"(-480.0, -270.0)",0,798.2195999938995,798.2085999683477,True,False
15,2,212.83547599997837,circle,"(-480.0, -270.0)",0,816.8741000117734,816.8630999862216,True,False
15,2,212.85076089994982,circle,"(-480.0, -270.0)",0,832.1589999832213,832.1479999576695,True,False
15,2,212.86792269995203,circle,"(-480.0, -270.0)",0,849.3207999854349,849.3097999598831,True,False
15,2,212.88377139996737,circle,"(-480.0, -270.0)",0,865.1695000007749,865.1584999752231,True,False
15,2,212.90106449997984,circle,"(-480.0, -270.0)",0,882.4626000132412,882.4515999876894,True,False
15,2,212.9169806999853,circle,"(-480.0, -270.0)",0,898.3788000186905,898.3677999931388,True,False
15,2,212.9345543999807,circle,"(-480.0, -270.0)",0,915.9525000141002,915.9414999885485,True,False
15,2,212.9508763999911,circle,"(-480.0, -270.0)",0,932.274500024505,932.2634999989532,True,False
15,2,212.96879359998275,circle,"(-480.0, -270.0)",0,950.1917000161484,950.1806999905966,True,False
15,2,212.98380210000323,circle,"(-480.0, -270.0)",0,965.2002000366338,965.189200011082,True,False
15,2,213.00140680000186,circle,"(-480.0, -270.0)",0,982.8049000352621,982.7939000097103,True,False
15,2,213.01903919997858,circle,"(-480.0, -270.0)",0,1000.4373000119813,1000.4262999864295,True,False
15,2,213.03432219999377,circle,"(-480.0, -270.0)",0,1015.7203000271693,1015.7093000016175,True,False
15,2,213.05043959995965,circle,"(-480.0, -270.0)",0,1031.8376999930479,1031.826699967496,True,False
15,2,213.06841199996416,circle,"(-480.0, -270.0)",0,1049.8100999975577,1049.799099972006,True,False
15,2,213.08426909998525,circle,"(-480.0, -270.0)",0,1065.6672000186518,1065.6561999931,True,False
15,2,213.1013994999812,circle,"(-480.0, -270.0)",0,1082.797600014601,1082.7865999890491,True,False
15,2,213.11677589995088,circle,"(-480.0, -270.0)",0,1098.173999984283,1098.1629999587312,True,False
15,2,213.1343839999754,circle,"(-480.0, -270.0)",0,1115.7821000088006,1115.7710999832489,True,False
15,2,213.1507600999903,circle,"(-480.0, -270.0)",0,1132.1582000236958,1132.147199998144,True,False
15,2,213.16850339999655,circle,"(-480.0, -270.0)",0,1149.901500029955,1149.8905000044033,True,False
15,2,213.1844966999488,circle,"(-480.0, -270.0)",0,1165.8947999821976,1165.8837999566458,True,False
15,2,213.2021267999662,circle,"(-480.0, -270.0)",0,1183.524899999611,1183.5138999740593,True,False
15,2,213.21783529996173,circle,"(-480.0, -270.0)",0,1199.233399995137,1199.2223999695852,True,False
15,2,213.2348463999806,circle,"(-480.0, -270.0)",0,1216.2445000139996,1216.2334999884479,True,False
15,2,213.25132219999796,circle,"(-480.0, -270.0)",0,1232.7203000313602,1232.7093000058085,True,False
15,2,213.26785939995898,circle,"(-480.0, -270.0)",0,1249.2574999923818,1249.24649996683,True,False
15,2,213.28437119995942,circle,"(-480.0, -270.0)",0,1265.7692999928258,1265.758299967274,True,False
15,2,213.3021146999672,circle,"(-480.0, -270.0)",0,1283.512800000608,1283.5017999750562,True,False
15,2,213.31941749999532,circle,"(-480.0, -270.0)",0,1300.8156000287272,1300.8046000031754,True,False
15,2,213.33495869999751,circle,"(-480.0, -270.0)",0,1316.356800030917,1316.3458000053652,True,False
15,2,213.35117689997423,circle,"(-480.0, -270.0)",0,1332.5750000076368,1332.563999982085,True,False
15,2,213.3677237999509,circle,"(-480.0, -270.0)",0,1349.1218999843113,1349.1108999587595,True,False
15,2,213.384078699979,circle,"(-480.0, -270.0)",0,1365.4768000124022,1365.4657999868505,True,False
15,2,213.4012131000054,circle,"(-480.0, -270.0)",0,1382.6112000388093,1382.6002000132576,True,False
15,2,213.41805859998567,circle,"(-480.0, -270.0)",0,1399.4567000190727,1399.445699993521,True,False
15,2,213.43554729997413,circle,"(-480.0, -270.0)",0,1416.9454000075348,1416.934399981983,True,False
15,2,213.4503687999677,circle,"(-480.0, -270.0)",0,1431.7669000010937,1431.755899975542,True,False
15,2,213.4682723999722,circle,"(-480.0, -270.0)",0,1449.6705000055954,1449.6594999800436,True,False
15,2,213.48544619994937,circle,"(-480.0, -270.0)",0,1466.8442999827676,1466.8332999572158,True,False
15,2,213.50317779998295,circle,"(-480.0, -270.0)",0,1484.5759000163525,1484.5648999908008,True,False
15,2,213.51648669998394,circle,"(-480.0, -270.0)",0,1497.8848000173457,1497.873799991794,True,False
15,2,213.53480449999915,circle,"(-480.0, -270.0)",0,1516.2026000325568,1516.191600007005,True,False
15,2,213.5502288999851,circle,"(-480.0, -270.0)",0,1531.6270000184886,1531.6159999929368,True,False
15,2,213.56775869999547,circle,"(-480.0, -270.0)",0,1549.156800028868,1549.1458000033163,True,False
15,2,213.583733699983,circle,"(-480.0, -270.0)",0,1565.1318000163883,1565.1207999908365,True,False
15,2,213.6011870999937,circle,"(-480.0, -270.0)",0,1582.585200027097,1582.5742000015453,True,False
15,2,213.61682120000478,circle,"(-480.0, -270.0)",0,1598.2193000381812,1598.2083000126295,True,False
15,2,213.63487710000481,circle,"(-480.0, -270.0)",0,1616.275200038217,1616.2642000126652,True,False
15,2,213.65023909998126,circle,"(-480.0, -270.0)",0,1631.6372000146657,1631.626199989114,True,False
15,2,213.66811159998178,circle,"(-480.0, -270.0)",0,1649.5097000151873,1649.4986999896355,True,False
15,2,213.6837688999949,circle,"(-480.0, -270.0)",0,1665.1670000283048,1665.156000002753,True,False
15,2,213.70115129998885,circle,"(-480.0, -270.0)",0,1682.5494000222534,1682.5383999967016,True,False
15,2,213.71877049998147,circle,"(-480.0, -270.0)",0,1700.1686000148766,1700.1575999893248,True,False
15,2,213.734612500004,circle,"(-480.0, -270.0)",0,1716.0106000374071,1715.9996000118554,True,False
15,2,213.7536728999694,circle,"(-480.0, -270.0)",0,1735.0710000027902,1735.0599999772385,True,False
15,2,213.7677576999995,circle,"(-480.0, -270.0)",0,1749.155800032895,1749.1448000073433,True,False
15,2,213.78377819998423,circle,"(-480.0, -270.0)",0,1765.1763000176288,1765.165299992077,True,False
15,2,213.80146059999242,circle,"(-480.0, -270.0)",0,1782.8587000258267,1782.847700000275,True,False
15,2,215.4006320000044,star,"(-480.0, 270.0)",266.3177000358701,3382.0301000378095,3382.0191000122577,False,True
15,3,215.7686657999875,t,"(480.0, 270.0)",268.14609998837113,3750.063900020905,368.0337999830954,True,False
15,3,215.78597789997002,t,"(480.0, 270.0)",0,3767.3760000034235,385.3458999656141,True,False
15,3,215.80046289996244,t,"(480.0, 270.0)",0,3781.8609999958426,399.8308999580331,True,False
15,3,215.81613749999087,t,"(480.0, 270.0)",0,3797.5356000242755,415.505499986466,True,False
15,3,215.83599920000415,t,"(480.0, 270.0)",0,3817.3973000375554,435.36719999974594,True,False
15,3,215.85066479997477,t,"(480.0, 270.0)",0,3832.062900008168,450.0327999703586,True,False
15,3,215.86716039996827,t,"(480.0, 270.0)",0,3848.5585000016727,466.5283999638632,True,False
15,3,215.88321159995394,t,"(480.0, 270.0)",0,3864.6096999873407,482.57959994953126,True,False
15,3,215.9008355999831,t,"(480.0, 270.0)",0,3882.2337000165135,500.203599978704,True,False
15,3,215.91695059998892,t,"(480.0, 270.0)",0,3898.348700022325,516.3185999845155,True,False
15,3,215.9335046999622,t,"(480.0, 270.0)",0,3914.902799995616,532.8726999578066,True,False
15,3,215.94978749996517,t,"(480.0, 270.0)",0,3931.185599998571,549.1554999607615,True,False
15,3,215.96709200000623,t,"(480.0, 270.0)",0,3948.490100039635,566.4600000018254,True,False
15,3,215.98349600000074,t,"(480.0, 270.0)",0,3964.894100034144,582.8639999963343,True,False
15,3,216.00136509997537,t,"(480.0, 270.0)",0,3982.763200008776,600.7330999709666,True,False
15,3,216.01649979996728,t,"(480.0, 270.0)",0,3997.8979000006802,615.8677999628708,True,False
15,3,216.03430229995865,t,"(480.0, 270.0)",0,4015.700399992056,633.6702999542467,True,False
15,3,216.04976799996803,t,"(480.0, 270.0)",0,4031.1661000014283,649.1359999636188,True,False
15,3,216.06761430000188,t,"(480.0, 270.0)",0,4049.0124000352807,666.9822999974713,True,False
15,3,216.08385749999434,t,"(480.0, 270.0)",0,4065.25560002774,683.2254999899305,True,False
15,3,216.10016579995863,t,"(480.0, 270.0)",0,4081.563899992034,699.5337999542244,True,False
15,3,216.11667349998606,t,"(480.0, 270.0)",0,4098.071600019466,716.0414999816567,True,False
15,3,216.1343332999968,t,"(480.0, 270.0)",0,4115.731400030199,733.70129999239,True,False
15,3,216.1499119999935,t,"(480.0, 270.0)",0,4131.310100026894,749.2799999890849,True,False
15,3,216.16702369996347,t,"(480.0, 270.0)",0,4148.421799996868,766.3916999590583,True,False
15,3,216.18318369996268,t,"(480.0, 270.0)",0,4164.5817999960855,782.551699958276,True,False
15,3,216.20105849998072,t,"(480.0, 270.0)",0,4182.45660001412,800.4264999763109,True,False
15,3,216.21629509999184,t,"(480.0, 270.0)",0,4197.693200025242,815.6630999874324,True,False
15,3,216.23576439998578,t,"(480.0, 270.0)",0,4217.162500019185,835.1323999813758,True,False
15,3,216.24966869998025,t,"(480.0, 270.0)",0,4231.06680001365,849.0366999758407,True,False
15,3,216.2675609999569,t,"(480.0, 270.0)",0,4248.959099990316,866.9289999525063,True,False
15,3,216.2730607999838,star,"(-480.0, 270.0)",269.2887000157498,4254.458900017198,872.4287999793887,True,False
15,3,216.28665679995902,star,"(-480.0, 270.0)",0,4268.054899992421,886.0247999546118,True,False
15,3,216.30092389998026,star,"(-480.0, 270.0)",0,4282.322000013664,900.2918999758549,True,False
15,3,216.31786889996147,star,"(-480.0, 270.0)",0,4299.26699999487,917.2368999570608,True,False
15,3,216.33437959995354,star,"(-480.0, 270.0)",0,4315.777699986938,933.7475999491289,True,False
15,3,216.35008599999128,star,"(-480.0, 270.0)",0,4331.4841000246815,949.4539999868721,True,False
15,3,216.3675910999882,star,"(-480.0, 270.0)",0,4348.989200021606,966.9590999837965,True,False
15,3,216.3837340999744,star,"(-480.0, 270.0)",0,4365.132200007793,983.1020999699831,True,False
15,3,216.40026089997264,star,"(-480.0, 270.0)",0,4381.659000006039,999.6288999682292,True,False
15,3,216.4165971999755,star,"(-480.0, 270.0)",0,4397.995300008915,1015.9651999711059,True,False
15,3,216.43383920000633,star,"(-480.0, 270.0)",0,4415.237300039735,1033.2072000019252,True,False
15,3,216.44938740000362,star,"(-480.0, 270.0)",0,4430.785500037018,1048.7553999992087,True,False
15,3,216.46886219998123,star,"(-480.0, 270.0)",0,4450.260300014634,1068.2301999768242,True,False
15,3,216.48329899995588,star,"(-480.0, 270.0)",0,4464.69709998928,1082.6669999514706,True,False
15,3,216.50056199997198,star,"(-480.0, 270.0)",0,4481.960100005381,1099.9299999675713,True,False
15,3,216.51664769998752,star,"(-480.0, 270.0)",0,4498.045800020918,1116.0156999831088,True,False
15,3,216.533995100006,star,"(-480.0, 270.0)",0,4515.393200039398,1133.3631000015885,True,False
15,3,216.54985509999096,star,"(-480.0, 270.0)",0,4531.253200024366,1149.223099986557,True,False
15,3,216.56754530000035,star,"(-480.0, 270.0)",0,4548.94340003375,1166.9132999959402,True,False
15,3,216.58347610000055,star,"(-480.0, 270.0)",0,4564.874200033955,1182.8440999961458,True,False
15,3,216.6003553000046,star,"(-480.0, 270.0)",0,4581.7534000379965,1199.723300000187,True,False
15,3,216.6163807999692,star,"(-480.0, 270.0)",0,4597.778900002595,1215.7487999647856,True,False
15,3,216.63550909998594,star,"(-480.0, 270.0)",0,4616.907200019341,1234.8770999815315,True,False
15,3,216.6493916999898,star,"(-480.0, 270.0)",0,4630.789800023194,1248.759699985385,True,False
15,3,216.66661409998778,star,"(-480.0, 270.0)",0,4648.012200021185,1265.9820999833755,True,False
15,3,216.6828785999678,star,"(-480.0, 270.0)",0,4664.27670000121,1282.2465999634005,True,False
15,3,216.70027749997098,star,"(-480.0, 270.0)",0,4681.675600004382,1299.645499966573,True,False
15,3,216.71749289997388,star,"(-480.0, 270.0)",0,4698.891000007279,1316.8608999694698,True,False
15,3,216.7339798999601,star,"(-480.0, 270.0)",0,4715.377999993507,1333.3478999556974,True,False
15,3,216.74998039996717,star,"(-480.0, 270.0)",0,4731.378500000574,1349.3483999627642,True,False
15,3,216.76747649995377,star,"(-480.0, 270.0)",0,4748.874599987175,1366.8444999493659,True,False
15,3,216.78322029998526,star,"(-480.0, 270.0)",0,4764.618400018662,1382.5882999808528,True,False
15,3,216.80057409999426,star,"(-480.0, 270.0)",0,4781.972200027667,1399.9420999898575,True,False
15,3,216.81693579995772,star,"(-480.0, 270.0)",0,4798.333899991121,1416.3037999533117,True,False
15,3,216.833429899998,star,"(-480.0, 270.0)",0,4814.828000031412,1432.7978999936022,True,False
15,3,216.84965529997135,star,"(-480.0, 270.0)",0,4831.053400004748,1449.0232999669388,True,False
15,3,216.8667892999947,star,"(-480.0, 270.0)",0,4848.18740002811,1466.1572999903,True,False
15,3,216.88425339997048,star,"(-480.0, 270.0)",0,4865.651500003878,1483.6213999660686,True,False
15,3,216.90229009999894,star,"(-480.0, 270.0)",0,4883.6882000323385,1501.658099994529,True,False
15,3,216.91649049997795,star,"(-480.0, 270.0)",0,4897.888600011356,1515.8584999735467,True,False
15,3,216.93371719995048,star,"(-480.0, 270.0)",0,4915.115299983881,1533.085199946072,True,False
15,3,216.95009080000455,star,"(-480.0, 270.0)",0,4931.488900037948,1549.4588000001386,True,False
15,3,216.96708370000124,star,"(-480.0, 270.0)",0,4948.481800034642,1566.4516999968328,True,False
15,3,216.98305709997658,star,"(-480.0, 270.0)",0,4964.455200009979,1582.4250999721698,True,False
15,3,217.00051359995268,star,"(-480.0, 270.0)",0,4981.911699986085,1599.8815999482758,True,False
15,3,217.01714159996482,star,"(-480.0, 270.0)",0,4998.539699998219,1616.509599960409,True,False
15,3,217.0338333999971,star,"(-480.0, 270.0)",0,5015.231500030495,1633.2013999926858,True,False
15,3,217.04985349997878,star,"(-480.0, 270.0)",0,5031.251600012183,1649.2214999743737,True,False
15,3,217.0673055999796,star,"(-480.0, 270.0)",0,5048.703700012993,1666.6735999751836,True,False
15,3,217.08292610000353,star,"(-480.0, 270.0)",0,5064.3242000369355,1682.294099999126,True,False
15,3,217.1004724999657,star,"(-480.0, 270.0)",0,5081.8705999990925,1699.840499961283,True,False
15,3,217.1165036999737,star,"(-480.0, 270.0)",0,5097.901800007094,1715.8716999692842,True,False
15,3,217.13319239998236,star,"(-480.0, 270.0)",0,5114.590500015765,1732.560399977956,True,False
15,3,217.15024220000487,star,"(-480.0, 270.0)",0,5131.640300038271,1749.6102000004612,True,False
15,3,217.1671425999957,star,"(-480.0, 270.0)",0,5148.540700029116,1766.5105999913067,True,False
15,3,220.0655635999865,t,"(480.0, 270.0)",266.15149999270216,8046.961700019892,4664.931599982083,False,True
15,4,221.8688073999947,cross,"(480.0, -270.0)",886.4060000050813,9850.205500028096,1803.2438000082038,False,True
16,1,226.00164219998987,circle,"(-480.0, -270.0)",0,0.012000033166259527,0.012000033166259527,False,True
16,2,226.398220699979,star,"(-480.0, 270.0)",251.7867999849841,396.5905000222847,396.5784999891184,True,False
16,2,226.4176931999973,star,"(-480.0, 270.0)",0,416.0630000405945,416.05100000742823,True,False
16,2,226.4314372999943,star,"(-480.0, 270.0)",0,429.8071000375785,429.79510000441223,True,False
16,2,226.44731999997748,star,"(-480.0, 270.0)",0,445.68980002077296,445.6777999876067,True,False
16,2,226.4637798999902,star,"(-480.0, 270.0)",0,462.14970003347844,462.1377000003122,True,False
16,2,226.47963939997135,star,"(-480.0, 270.0)",0,478.00920001463965,477.9971999814734,True,False
16,2,226.4965971999918,star,"(-480.0, 270.0)",0,494.9670000351034,494.95500000193715,True,False
16,2,226.51327919994947,star,"(-480.0, 270.0)",0,511.64899999275804,511.6369999595918,True,False
16,2,226.53032329998678,star,"(-480.0, 270.0)",0,528.6931000300683,528.681099996902,True,False
16,2,226.54625719995238,star,"(-480.0, 270.0)",0,544.6269999956712,544.614999962505,True,False
16,2,226.56316580000566,star,"(-480.0, 270.0)",0,561.5356000489555,561.5236000157893,True,False
16,2,226.57965079997666,star,"(-480.0, 270.0)",0,578.0206000199541,578.0085999867879,True,False
16,2,226.59889619995374,star,"(-480.0, 270.0)",0,597.2659999970347,597.2539999638684,True,False
16,2,226.61402159999125,star,"(-480.0, 270.0)",0,612.3914000345394,612.3794000013731,True,False
16,2,226.63113659998635,star,"(-480.0, 270.0)",0,629.5064000296406,629.4943999964744,True,False
16,2,226.64676829997916,star,"(-480.0, 270.0)",0,645.1381000224501,645.1260999892838,True,False
16,2,226.66452359996038,star,"(-480.0, 270.0)",0,662.8934000036679,662.8813999705017,True,False
16,2,226.68049639998935,star,"(-480.0, 270.0)",0,678.866200032644,678.8541999994777,True,False
16,2,226.69705259997863,star,"(-480.0, 270.0)",0,695.4224000219256,695.4103999887593,True,False
16,2,226.71407259994885,star,"(-480.0, 270.0)",0,712.4423999921419,712.4303999589756,True,False
16,2,226.7307807999896,star,"(-480.0, 270.0)",0,729.1506000328809,729.1385999997146,True,False
16,2,226.74628249998204,star,"(-480.0, 270.0)",0,744.6523000253364,744.6402999921702,True,False
16,2,226.76554930000566,star,"(-480.0, 270.0)",0,763.9191000489518,763.9071000157855,True,False
16,2,226.7796957999817,star,"(-480.0, 270.0)",0,778.0656000250019,778.0535999918357,True,False
16,2,226.79882849997375,star,"(-480.0, 270.0)",0,797.198300017044,797.1862999838777,True,False
16,2,226.8132761999732,star,"(-480.0, 270.0)",0,811.6460000164807,811.6339999833144,True,False
16,2,226.83064869994996,star,"(-480.0, 270.0)",0,829.0184999932535,829.0064999600872,True,False
16,2,226.8462115000002,star,"(-480.0, 270.0)",0,844.581300043501,844.5693000103347,True,False
16,2,226.86432819999754,star,"(-480.0, 270.0)",0,862.6980000408366,862.6860000076704,True,False
16,2,226.86637049994897,circle,"(-480.0, -270.0)",265.78689995221794,864.7402999922633,864.7282999590971,True,False
16,2,226.88365919998614,circle,"(-480.0, -270.0)",0,882.0290000294335,882.0169999962673,True,False
16,2,226.89792059996398,circle,"(-480.0, -270.0)",0,896.290400007274,896.2783999741077,True,False
16,2,226.9135735000018,circle,"(-480.0, -270.0)",0,911.9433000450954,911.9313000119291,True,False
16,2,226.93077639996773,circle,"(-480.0, -270.0)",0,929.1462000110187,929.1341999778524,True,False
16,2,226.94720649998635,circle,"(-480.0, -270.0)",0,945.5763000296429,945.5642999964766,True,False
16,2,226.96565809997264,circle,"(-480.0, -270.0)",0,964.0279000159353,964.015899982769,True,False
16,2,226.9800371999736,circle,"(-480.0, -270.0)",0,978.4070000168867,978.3949999837205,True,False
16,2,226.99650009995094,circle,"(-480.0, -270.0)",0,994.869899994228,994.8578999610618,True,False
16,2,227.01301189995138,circle,"(-480.0, -270.0)",0,1011.3816999946721,1011.3696999615058,True,False
16,2,227.0302590999636,circle,"(-480.0, -270.0)",0,1028.6289000068791,1028.6168999737129,True,False
16,2,227.04642329999479,circle,"(-480.0, -270.0)",0,1044.7931000380777,1044.7811000049114,True,False
16,2,227.0655236999737,circle,"(-480.0, -270.0)",0,1063.8935000170022,1063.881499983836,True,False
16,2,227.08021749998443,circle,"(-480.0, -270.0)",0,1078.5873000277206,1078.5752999945544,True,False
16,2,227.09777880000183,circle,"(-480.0, -270.0)",0,1096.148600045126,1096.1366000119597,True,False
16,2,227.11220229999162,circle,"(-480.0, -270.0)",0,1110.572100034915,1110.5601000017487,True,False
16,2,227.1311289999867,circle,"(-480.0, -270.0)",0,1129.4988000299782,1129.486799996812,True,False
16,2,227.1472330999677,circle,"(-480.0, -270.0)",0,1145.6029000109993,1145.590899977833,True,False
16,2,227.16446959995665,circle,"(-480.0, -270.0)",0,1162.839399999939,1162.8273999667726,True,False
16,2,227.18090370000573,circle,"(-480.0, -270.0)",0,1179.273500049021,1179.2615000158548,True,False
16,2,227.19711339997593,circle,"(-480.0, -270.0)",0,1195.4832000192255,1195.4711999860592,True,False
16,2,227.21341500000563,circle,"(-480.0, -270.0)",0,1211.7848000489175,1211.7728000157513,True,False
16,2,227.22993899998255,circle,"(-480.0, -270.0)",0,1228.308800025843,1228.2967999926768,True,False
16,2,227.24630870000692,circle,"(-480.0, -270.0)",0,1244.6785000502132,1244.666500017047,True,False
16,2,227.26325809996342,circle,"(-480.0, -270.0)",0,1261.6279000067152,1261.615899973549,True,False
16,2,227.27949719998287,circle,"(-480.0, -270.0)",0,1277.8670000261627,1277.8549999929965,True,False
16,2,227.29665179998847,circle,"(-480.0, -270.0)",0,1295.0216000317596,1295.0095999985933,True,False
16,2,227.31316249998054,circle,"(-480.0, -270.0)",0,1311.5323000238277,1311.5202999906614,True,False
16,2,227.33092279999983,circle,"(-480.0, -270.0)",0,1329.292600043118,1329.2806000099517,True,False
16,2,227.34694600000512,circle,"(-480.0, -270.0)",0,1345.315800048411,1345.3038000152446,True,False
16,2,227.36378769995645,circle,"(-480.0, -270.0)",0,1362.1574999997392,1362.145499966573,True,False
16,2,227.38039349997416,circle,"(-480.0, -270.0)",0,1378.7633000174537,1378.7512999842875,True,False
16,2,227.396775399975,circle,"(-480.0, -270.0)",0,1395.1452000183053,1395.133199985139,True,False
16,2,227.41297799994936,circle,"(-480.0, -270.0)",0,1411.3477999926545,1411.3357999594882,True,False
16,2,227.43033539998578,circle,"(-480.0, -270.0)",0,1428.7052000290714,1428.6931999959052,True,False
16,2,227.44584939995548,circle,"(-480.0, -270.0)",0,1444.21919999877,1444.2071999656036,True,False
16,2,227.4628315999871,circle,"(-480.0, -270.0)",0,1461.2014000304043,1461.189399997238,True,False
16,2,227.4793134999927,circle,"(-480.0, -270.0)",0,1477.6833000360057,1477.6713000028394,True,False
16,2,227.49655979999807,circle,"(-480.0, -270.0)",0,1494.9296000413597,1494.9176000081934,True,False
16,2,227.51347459998215,circle,"(-480.0, -270.0)",0,1511.8444000254385,1511.8323999922723,True,False
16,2,227.53031760000158,circle,"(-480.0, -270.0)",0,1528.6874000448734,1528.675400011707,True,False
16,2,227.54645209998125,circle,"(-480.0, -270.0)",0,1544.8219000245444,1544.8098999913782,True,False
16,2,227.5636137999827,circle,"(-480.0, -270.0)",0,1561.9836000259966,1561.9715999928303,True,False
16,2,227.58046549995197,circle,"(-480.0, -270.0)",0,1578.8352999952622,1578.823299962096,True,False
16,2,227.59690689999843,circle,"(-480.0, -270.0)",0,1595.2767000417225,1595.2647000085562,True,False
16,2,227.6131122999941,circle,"(-480.0, -270.0)",0,1611.4821000373922,1611.470100004226,True,False
16,2,227.62975389999337,circle,"(-480.0, -270.0)",0,1628.1237000366673,1628.111700003501,True,False
16,2,227.64590269996552,circle,"(-480.0, -270.0)",0,1644.2725000088103,1644.260499975644,True,False
16,2,227.6630456999992,circle,"(-480.0, -270.0)",0,1661.4155000424944,1661.4035000093281,True,False
16,2,227.67966259998502,circle,"(-480.0, -270.0)",0,1678.0324000283144,1678.0203999951482,True,False
16,2,227.69682779995492,circle,"(-480.0, -270.0)",0,1695.1975999982096,1695.1855999650434,True,False
16,2,227.71366799995303,circle,"(-480.0, -270.0)",0,1712.0377999963239,1712.0257999631576,True,False
16,2,227.73037529998692,circle,"(-480.0, -270.0)",0,1728.7451000302099,1728.7330999970436,True,False
16,2,227.74683169997297,circle,"(-480.0, -270.0)",0,1745.2015000162646,1745.1894999830984,True,False
16,2,227.7642221999704,circle,"(-480.0, -270.0)",0,1762.592000013683,1762.5799999805167,True,False
16,2,228.76215139997657,star,"(-480.0, 270.0)",266.6869999957271,2760.5212000198662,2760.5091999867,False,True
16,3,229.031333299994,star,"(-480.0, 270.0)",264.17490001767874,3029.7031000372954,269.18190001742914,True,False
16,3,229.04921819997253,star,"(-480.0, 270.0)",0,3047.5880000158213,287.0667999959551,True,False
16,3,229.0644807999488,star,"(-480.0, 270.0)",0,3062.850599992089,302.32939997222275,True,False
16,3,229.07919139997102,star,"(-480.0, 270.0)",0,3077.5612000143155,317.0399999944493,True,False
16,3,229.09658429998672,star,"(-480.0, 270.0)",0,3094.9541000300087,334.4329000101425,True,False
16,3,229.11233139998512,star,"(-480.0, 270.0)",0,3110.7012000284158,350.18000000854954,True,False
16,3,229.13099169998895,star,"(-480.0, 270.0)",0,3129.361500032246,368.8403000123799,True,False
16,3,229.1468787000049,star,"(-480.0, 270.0)",0,3145.248500048183,384.7273000283167,True,False
16,3,229.16449259995716,star,"(-480.0, 270.0)",0,3162.8624000004493,402.34119998058304,True,False
16,3,229.18010709999362,star,"(-480.0, 270.0)",0,3178.4769000369124,417.9557000170462,True,False
16,3,229.1974068999989,star,"(-480.0, 270.0)",0,3195.776700042188,435.25550002232194,True,False
16,3,229.2138548999792,star,"(-480.0, 270.0)",0,3212.224700022489,451.7035000026226,True,False
16,3,229.2304460000014,star,"(-480.0, 270.0)",0,3228.8158000446856,468.2946000248194,True,False
16,3,229.24659150000662,star,"(-480.0, 270.0)",0,3244.9613000499085,484.44010003004223,True,False
16,3,229.26383309997618,star,"(-480.0, 270.0)",0,3262.2029000194743,501.6816999996081,True,False
16,3,229.27900819998467,star,"(-480.0, 270.0)",0,3277.3780000279658,516.8568000080995,True,False
16,3,229.2958635999821,star,"(-480.0, 270.0)",0,3294.233400025405,533.7122000055388,True,False
16,3,229.31259940000018,star,"(-480.0, 270.0)",0,3310.9692000434734,550.4480000236072,True,False
16,3,229.3289070999599,star,"(-480.0, 270.0)",0,3327.2769000031985,566.7556999833323,True,False
16,3,229.34554859995842,star,"(-480.0, 270.0)",0,3343.918400001712,583.3971999818459,True,False
16,3,229.36358959996141,star,"(-480.0, 270.0)",0,3361.9594000047073,601.438199984841,True,False
16,3,229.38008360000094,star,"(-480.0, 270.0)",0,3378.4534000442363,617.9322000243701,True,False
16,3,229.3967676999746,star,"(-480.0, 270.0)",0,3395.1375000178814,634.6162999980152,True,False
16,3,229.4137227999745,star,"(-480.0, 270.0)",0,3412.092600017786,651.5713999979198,True,False
16,3,229.43012959999032,star,"(-480.0, 270.0)",0,3428.4994000336155,667.9782000137493,True,False
16,3,229.44639070000267,star,"(-480.0, 270.0)",0,3444.760500045959,684.2393000260927,True,False
16,3,229.46349669998745,star,"(-480.0, 270.0)",0,3461.8665000307374,701.3453000108711,True,False
16,3,229.47932759998366,star,"(-480.0, 270.0)",0,3477.6974000269547,717.1762000070885,True,False
16,3,229.49684189999243,star,"(-480.0, 270.0)",0,3495.211700035725,734.6905000158586,True,False
16,3,229.512327799981,star,"(-480.0, 270.0)",0,3510.6976000242867,750.1764000044204,True,False
16,3,229.52899919997435,star,"(-480.0, 270.0)",0,3527.369000017643,766.8477999977767,True,False
16,3,229.54560680000577,star,"(-480.0, 270.0)",0,3543.9766000490636,783.4554000291973,True,False
16,3,229.56275039998582,star,"(-480.0, 270.0)",0,3561.1202000291087,800.5990000092424,True,False
16,3,229.57961439999053,star,"(-480.0, 270.0)",0,3577.984200033825,817.4630000139587,True,False
16,3,229.59692469995935,star,"(-480.0, 270.0)",0,3595.2945000026375,834.7732999827713,True,False
16,3,229.61281749996124,star,"(-480.0, 270.0)",0,3611.1873000045307,850.6660999846645,True,False
16,3,229.62946309999097,star,"(-480.0, 270.0)",0,3627.8329000342637,867.3117000143975,True,False
16,3,229.64661209995393,star,"(-480.0, 270.0)",0,3644.9818999972194,884.4606999773532,True,False
16,3,229.6675796000054,star,"(-480.0, 270.0)",0,3665.949400048703,905.4282000288367,True,False
16,3,229.67901099997107,star,"(-480.0, 270.0)",0,3677.3808000143617,916.8595999944955,True,False
16,3,229.69680449995212,star,"(-480.0, 270.0)",0,3695.174299995415,934.6530999755487,True,False
16,3,229.71215199999278,star,"(-480.0, 270.0)",0,3710.5218000360765,950.0006000162102,True,False
16,3,229.72940439998638,star,"(-480.0, 270.0)",0,3727.774200029671,967.253000009805,True,False
16,3,229.74540479999268,star,"(-480.0, 270.0)",0,3743.7746000359766,983.2534000161104,True,False
16,3,229.76450359995943,star,"(-480.0, 270.0)",0,3762.873400002718,1002.3521999828517,True,False
16,3,229.77891219995217,star,"(-480.0, 270.0)",0,3777.2819999954663,1016.7607999756001,True,False
16,3,229.7956509999931,star,"(-480.0, 270.0)",0,3794.020800036378,1033.499600016512,True,False
16,3,229.81186019995948,star,"(-480.0, 270.0)",0,3810.2300000027753,1049.708799982909,True,False
16,3,229.83112149999943,star,"(-480.0, 270.0)",0,3829.4913000427186,1068.9701000228524,True,False
16,3,229.84709130000556,star,"(-480.0, 270.0)",0,3845.461100048851,1084.939900028985,True,False
16,3,229.8635973999626,star,"(-480.0, 270.0)",0,3861.9672000058927,1101.4459999860264,True,False
16,3,229.88002979999874,star,"(-480.0, 270.0)",0,3878.39960004203,1117.878400022164,True,False
16,3,229.89745259995107,star,"(-480.0, 270.0)",0,3895.8223999943584,1135.3011999744922,True,False
16,3,229.91312869999092,star,"(-480.0, 270.0)",0,3911.498500034213,1150.9773000143468,True,False
16,3,229.9303117999807,star,"(-480.0, 270.0)",0,3928.6816000239924,1168.1604000041261,True,False
16,3,229.94567589997314,star,"(-480.0, 270.0)",0,3944.0457000164315,1183.5244999965653,True,False
16,3,229.96227339998586,star,"(-480.0, 270.0)",0,3960.6432000291534,1200.1220000092871,True,False
16,3,229.9787652999512,star,"(-480.0, 270.0)",0,3977.1350999944843,1216.613899974618,True,False
16,3,229.99775949999457,star,"(-480.0, 270.0)",0,3996.1293000378646,1235.6081000179984,True,False
16,3,230.013312999974,star,"(-480.0, 270.0)",0,4011.6828000172973,1251.161599997431,True,False
16,3,230.0298101999797,star,"(-480.0, 270.0)",0,4028.180000022985,1267.6588000031188,True,False
16,3,230.0464361999766,star,"(-480.0, 270.0)",0,4044.8060000198893,1284.284800000023,True,False
16,3,230.063178899989,star,"(-480.0, 270.0)",0,4061.54870003229,1301.0275000124238,True,False
16,3,230.07964229997015,star,"(-480.0, 270.0)",0,4078.0121000134386,1317.4908999935724,True,False
16,3,230.09655630000634,star,"(-480.0, 270.0)",0,4094.9261000496335,1334.4049000297673,True,False
16,3,230.1136242999928,star,"(-480.0, 270.0)",0,4111.9941000361,1351.4729000162333,True,False
16,3,230.13543349999236,star,"(-480.0, 270.0)",0,4133.803300035652,1373.2821000157855,True,False
16,3,230.14584019995527,star,"(-480.0, 270.0)",0,4144.209999998566,1383.6887999786995,True,False
16,3,230.16412699996727,star,"(-480.0, 270.0)",0,4162.496800010558,1401.975599990692,True,False
16,3,230.17890369996894,star,"(-480.0, 270.0)",0,4177.273500012234,1416.7522999923676,True,False
16,3,230.19547399994917,star,"(-480.0, 270.0)",0,4193.8437999924645,1433.3225999725983,True,False
16,3,230.21285199996782,star,"(-480.0, 270.0)",0,4211.221800011117,1450.7005999912508,True,False
16,3,230.2305315999547,star,"(-480.0, 270.0)",0,4228.901399997994,1468.380199978128,True,False
16,3,230.2470908999676,star,"(-480.0, 270.0)",0,4245.460700010881,1484.9394999910146,True,False
16,3,230.26344589999644,star,"(-480.0, 270.0)",0,4261.815700039733,1501.294500019867,True,False
16,3,230.28016269998625,star,"(-480.0, 270.0)",0,4278.532500029542,1518.0113000096753,True,False
16,3,230.2973455999745,star,"(-480.0, 270.0)",0,4295.715400017798,1535.1941999979317,True,False
16,3,230.31267319998005,star,"(-480.0, 270.0)",0,4311.043000023346,1550.5218000034802,True,False
16,3,230.32881879998604,star,"(-480.0, 270.0)",0,4327.188600029331,1566.6674000094645,True,False
16,3,230.3443464000011,star,"(-480.0, 270.0)",0,4342.716200044379,1582.1950000245124,True,False
16,3,230.3623505999567,star,"(-480.0, 270.0)",0,4360.720399999991,1600.1991999801248,True,False
16,3,230.37830349995056,star,"(-480.0, 270.0)",0,4376.673299993854,1616.1520999739878,True,False
16,3,230.39718969998648,star,"(-480.0, 270.0)",0,4395.559500029776,1635.03830000991,True,False
16,3,230.41299219999928,star,"(-480.0, 270.0)",0,4411.362000042573,1650.8408000227064,True,False
16,3,230.4299272999633,star,"(-480.0, 270.0)",0,4428.297100006603,1667.7758999867365,True,False
16,3,230.44566249998752,star,"(-480.0, 270.0)",0,4444.032300030813,1683.5111000109464,True,False
16,3,230.46296499995515,star,"(-480.0, 270.0)",0,4461.33479999844,1700.8135999785736,True,False
16,3,230.47926349996123,star,"(-480.0, 270.0)",0,4477.633300004527,1717.1120999846607,True,False
16,3,230.49638759996742,star,"(-480.0, 270.0)",0,4494.757400010712,1734.2361999908462,True,False
16,3,230.51217389997328,star,"(-480.0, 270.0)",0,4510.543700016569,1750.0224999967031,True,False
16,3,230.5296582999872,star,"(-480.0, 270.0)",0,4528.028100030497,1767.5069000106305,True,False
16,3,230.54518739995547,star,"(-480.0, 270.0)",0,4543.557199998759,1783.0359999788925,True,False
17,1,238.08077689999482,circle,"(-480.0, -270.0)",0,0.012200034689158201,0.012200034689158201,False,True
17,2,238.34443830000237,cross,"(480.0, -270.0)",261.9252000004053,263.67360004223883,263.6614000075497,True,False
17,2,238.36275299999397,cross,"(480.0, -270.0)",0,281.988300033845,281.97609999915585,True,False
17,2,238.37837649998255,cross,"(480.0, -270.0)",0,297.61180002242327,297.5995999877341,True,False
17,2,238.393038899987,cross,"(480.0, -270.0)",0,312.2742000268772,312.26199999218807,True,False
17,2,238.4153594999807,cross,"(480.0, -270.0)",0,334.5948000205681,334.5825999858789,True,False
17,2,238.42572679999284,cross,"(480.0, -270.0)",0,344.962100032717,344.94989999802783,True,False
17,2,238.4441753999563,cross,"(480.0, -270.0)",0,363.41069999616593,363.3984999614768,True,False
17,2,238.4593286999734,cross,"(480.0, -270.0)",0,378.5640000132844,378.5517999785952,True,False
17,2,238.4769207999925,cross,"(480.0, -270.0)",0,396.15610003238544,396.1438999976963,True,False
17,2,238.4928055999917,cross,"(480.0, -270.0)",0,412.04090003157035,412.0286999968812,True,False
17,2,238.5094492000062,cross,"(480.0, -270.0)",0,428.6845000460744,428.67230001138523,True,False
17,2,238.52609259996098,cross,"(480.0, -270.0)",0,445.3279000008479,445.3156999661587,True,False
17,2,238.54496019997168,cross,"(480.0, -270.0)",0,464.19550001155585,464.1832999768667,True,False
17,2,238.55887889995938,cross,"(480.0, -270.0)",0,478.1141999992542,478.10199996456504,True,False
17,2,238.5768905999721,cross,"(480.0, -270.0)",0,496.1259000119753,496.11369997728616,True,False
17,2,238.59309639997082,cross,"(480.0, -270.0)",0,512.3317000106908,512.3194999760017,True,False
17,2,238.61051809997298,cross,"(480.0, -270.0)",0,529.7534000128508,529.7411999781616,True,False
17,2,238.62767449999228,cross,"(480.0, -270.0)",0,546.9098000321537,546.8975999974646,True,False
17,2,238.644636299985,cross,"(480.0, -270.0)",0,563.8716000248678,563.8593999901786,True,False
17,2,238.65940599999158,cross,"(480.0, -270.0)",0,578.6413000314496,578.6290999967605,True,False
17,2,238.67630059999647,cross,"(480.0, -270.0)",0,595.5359000363387,595.5237000016496,True,False
17,2,238.69280429999344,cross,"(480.0, -270.0)",0,612.039600033313,612.0273999986239,True,False
17,2,238.71079349995125,cross,"(480.0, -270.0)",0,630.0287999911234,630.0165999564342,True,False
17,2,238.72568679996766,cross,"(480.0, -270.0)",0,644.922100007534,644.9098999728449,True,False
17,2,238.74382489995332,cross,"(480.0, -270.0)",0,663.0601999931969,663.0479999585077,True,False
17,2,238.76421799999662,cross,"(480.0, -270.0)",0,683.45330003649,683.4411000018008,True,False
17,2,238.77741629997035,cross,"(480.0, -270.0)",0,696.6516000102274,696.6393999755383,True,False
17,2,238.79262699995888,cross,"(480.0, -270.0)",0,711.8622999987565,711.8500999640673,True,False
17,2,238.80988199997228,cross,"(480.0, -270.0)",0,729.1173000121489,729.1050999774598,True,False
17,2,238.82542589999503,cross,"(480.0, -270.0)",0,744.6612000348978,744.6490000002086,True,False
17,2,238.84503649995895,cross,"(480.0, -270.0)",0,764.2717999988236,764.2595999641344,True,False
17,2,238.85924939997494,cross,"(480.0, -270.0)",0,778.4847000148147,778.4724999801256,True,False
17,2,238.87851069995668,cross,"(480.0, -270.0)",0,797.7459999965504,797.7337999618612,True,False
17,2,238.89211409998825,cross,"(480.0, -270.0)",0,811.3494000281207,811.3371999934316,True,False
17,2,238.91165540000657,cross,"(480.0, -270.0)",0,830.8907000464387,830.8785000117496,True,False
17,2,238.92516119999345,cross,"(480.0, -270.0)",0,844.3965000333264,844.3842999986373,True,False
17,2,238.94500680000056,cross,"(480.0, -270.0)",0,864.2421000404283,864.2299000057392,True,False
17,2,238.9588787999819,cross,"(480.0, -270.0)",0,878.1141000217758,878.1018999870867,True,False
17,2,238.9771890999982,cross,"(480.0, -270.0)",0,896.4244000380859,896.4122000033967,True,False
17,2,238.97884789999807,circle,"(-480.0, -270.0)",266.2160000181757,898.0832000379451,898.0710000032559,True,False
17,2,238.99533239996526,circle,"(-480.0, -270.0)",0,914.5677000051364,914.5554999704473,True,False
17,2,239.0099932999583,circle,"(-480.0, -270.0)",0,929.2285999981686,929.2163999634795,True,False
17,2,239.02616079995641,circle,"(-480.0, -270.0)",0,945.3960999962874,945.3838999615982,True,False
17,2,239.04314189997967,circle,"(-480.0, -270.0)",0,962.3772000195459,962.3649999848567,True,False
17,2,239.06066479999572,circle,"(-480.0, -270.0)",0,979.9001000355929,979.8879000009038,True,False
17,2,239.0758556999499,circle,"(-480.0, -270.0)",0,995.0909999897704,995.0787999550812,True,False
17,2,239.09212019998813,circle,"(-480.0, -270.0)",0,1011.355500028003,1011.3432999933138,True,False
17,2,239.10956109996187,circle,"(-480.0, -270.0)",0,1028.7964000017382,1028.784199967049,True,False
17,2,239.1259445999749,circle,"(-480.0, -270.0)",0,1045.179900014773,1045.1676999800839,True,False
17,2,239.14486559998477,circle,"(-480.0, -270.0)",0,1064.1009000246413,1064.0886999899521,True,False
17,2,239.1589119999553,circle,"(-480.0, -270.0)",0,1078.1472999951802,1078.135099960491,True,False
17,2,239.17786639998667,circle,"(-480.0, -270.0)",0,1097.101700026542,1097.0894999918528,True,False
17,2,239.19260169996414,circle,"(-480.0, -270.0)",0,1111.8370000040159,1111.8247999693267,True,False
17,2,239.2106810999685,circle,"(-480.0, -270.0)",0,1129.9164000083692,1129.90419997368,True,False
17,2,239.2253940999508,circle,"(-480.0, -270.0)",0,1144.629399990663,1144.6171999559738,True,False
17,2,239.24337669997476,circle,"(-480.0, -270.0)",0,1162.612000014633,1162.5997999799438,True,False
17,2,239.25995099998545,circle,"(-480.0, -270.0)",0,1179.1863000253215,1179.1740999906324,True,False
17,2,239.27689089998603,circle,"(-480.0, -270.0)",0,1196.1262000259012,1196.113999991212,True,False
17,2,239.29226969997399,circle,"(-480.0, -270.0)",0,1211.505000013858,1211.492799979169,True,False
17,2,239.3095582999522,circle,"(-480.0, -270.0)",0,1228.7935999920592,1228.78139995737,True,False
17,2,239.32541059999494,circle,"(-480.0, -270.0)",0,1244.6459000348113,1244.6337000001222,True,False
17,2,239.34464379999554,circle,"(-480.0, -270.0)",0,1263.8791000354104,1263.8669000007212,True,False
17,2,239.35896689997753,circle,"(-480.0, -270.0)",0,1278.2022000174038,1278.1899999827147,True,False
17,2,239.37720649997937,circle,"(-480.0, -270.0)",0,1296.4418000192381,1296.429599984549,True,False
17,2,239.39826679998077,circle,"(-480.0, -270.0)",0,1317.502100020647,1317.489899985958,True,False
17,2,239.41089769999962,circle,"(-480.0, -270.0)",0,1330.1330000394955,1330.1208000048064,True,False
17,2,239.4256663999986,circle,"(-480.0, -270.0)",0,1344.9017000384629,1344.8895000037737,True,False
17,2,239.44275170000037,circle,"(-480.0, -270.0)",0,1361.9870000402443,1361.9748000055552,True,False
17,2,239.46078389999457,circle,"(-480.0, -270.0)",0,1380.0192000344396,1380.0069999997504,True,False
17,2,239.47755479998887,circle,"(-480.0, -270.0)",0,1396.7901000287384,1396.7778999940492,True,False
17,2,239.49270359997172,circle,"(-480.0, -270.0)",0,1411.9389000115916,1411.9266999769025,True,False
17,2,239.5103281000047,circle,"(-480.0, -270.0)",0,1429.5634000445716,1429.5512000098825,True,False
17,2,239.52547229995253,circle,"(-480.0, -270.0)",0,1444.7075999923982,1444.695399957709,True,False
17,2,239.54250159999356,circle,"(-480.0, -270.0)",0,1461.7369000334293,1461.72469999874,True,False
17,2,239.55860079999547,circle,"(-480.0, -270.0)",0,1477.836100035347,1477.8239000006579,True,False
17,2,239.5759853000054,circle,"(-480.0, -270.0)",0,1495.2206000452861,1495.208400010597,True,False
17,2,239.59236429998418,circle,"(-480.0, -270.0)",0,1511.5996000240557,1511.5873999893665,True,False
17,2,239.60984859999735,circle,"(-480.0, -270.0)",0,1529.0839000372216,1529.0717000025325,True,False
17,2,239.6253246999695,circle,"(-480.0, -270.0)",0,1544.560000009369,1544.54779997468,True,False
17,2,239.64308019995224,circle,"(-480.0, -270.0)",0,1562.3154999921098,1562.3032999574207,True,False
17,2,239.65986899996642,circle,"(-480.0, -270.0)",0,1579.1043000062928,1579.0920999716036,True,False
17,2,239.6769017999759,circle,"(-480.0, -270.0)",0,1596.137100015767,1596.1248999810778,True,False
17,2,239.67878259997815,star,"(-480.0, 270.0)",265.2082000277005,1598.0179000180215,1598.0056999833323,True,False
17,2,239.69524949998595,star,"(-480.0, 270.0)",0,1614.4848000258207,1614.4725999911316,True,False
17,2,239.7099465999636,star,"(-480.0, 270.0)",0,1629.1819000034593,1629.1696999687701,True,False
17,2,239.72622189996764,star,"(-480.0, 270.0)",0,1645.4572000075132,1645.444999972824,True,False
17,2,239.74278159998357,star,"(-480.0, 270.0)",0,1662.0169000234455,1662.0046999887563,True,False
17,2,239.7589042999898,star,"(-480.0, 270.0)",0,1678.1396000296809,1678.1273999949917,True,False
17,2,239.77564069995424,star,"(-480.0, 270.0)",0,1694.8759999941103,1694.8637999594212,True,False
17,2,239.79175390000455,star,"(-480.0, 270.0)",0,1710.9892000444233,1710.9770000097342,True,False
17,2,239.80929659999674,star,"(-480.0, 270.0)",0,1728.5319000366144,1728.5197000019252,True,False
17,2,239.82628069998464,star,"(-480.0, 270.0)",0,1745.5160000245087,1745.5037999898195,True,False
17,2,239.8429931999999,star,"(-480.0, 270.0)",0,1762.2285000397824,1762.2163000050932,True,False
17,2,239.8590401999536,star,"(-480.0, 270.0)",0,1778.2754999934696,1778.2632999587804,True,False
17,2,239.95987119997153,star,"(-480.0, 270.0)",262.8434000071138,1879.106500011403,1879.094299976714,False,True
17,3,240.2251055999659,star,"(-480.0, 270.0)",261.4089999697171,2144.3409000057727,265.2343999943696,True,False
17,3,240.2461940999492,star,"(-480.0, 270.0)",0,2165.4293999890797,286.32289997767657,True,False
17,3,240.25900149997324,star,"(-480.0, 270.0)",0,2178.23680001311,299.1303000017069,True,False
17,3,240.27598219999345,star,"(-480.0, 270.0)",0,2195.2175000333227,316.1110000219196,True,False
17,3,240.29251939995447,star,"(-480.0, 270.0)",0,2211.7546999943443,332.64819998294115,True,False
17,3,240.30910099996254,star,"(-480.0, 270.0)",0,2228.336300002411,349.2297999910079,True,False
17,3,240.32540779997362,star,"(-480.0, 270.0)",0,2244.6431000134908,365.53660000208765,True,False
17,3,240.3429970999714,star,"(-480.0, 270.0)",0,2262.2324000112712,383.1258999998681,True,False
17,3,240.35839169996325,star,"(-480.0, 270.0)",0,2277.627000003122,398.5204999917187,True,False
17,3,240.37789780000458,star,"(-480.0, 270.0)",0,2297.133100044448,418.0266000330448,True,False
17,3,240.39161809999496,star,"(-480.0, 270.0)",0,2310.85340003483,431.74690002342686,True,False
17,3,240.40910999994958,star,"(-480.0, 270.0)",0,2328.3452999894507,449.2387999780476,True,False
17,3,240.42506270000013,star,"(-480.0, 270.0)",0,2344.2980000399984,465.1915000285953,True,False
17,3,240.44214109994937,star,"(-480.0, 270.0)",0,2361.37639998924,482.26989997783676,True,False
17,3,240.45809400000144,star,"(-480.0, 270.0)",0,2377.3293000413105,498.2228000299074,True,False
17,3,240.47562419995666,star,"(-480.0, 270.0)",0,2394.859499996528,515.7529999851249,True,False
17,3,240.49172689998522,star,"(-480.0, 270.0)",0,2410.9622000250965,531.8557000136934,True,False
17,3,240.50925089995144,star,"(-480.0, 270.0)",0,2428.486199991312,549.3796999799088,True,False
17,3,240.52578429999994,star,"(-480.0, 270.0)",0,2445.0196000398137,565.9131000284106,True,False
17,3,240.54842079995433,star,"(-480.0, 270.0)",0,2467.656099994201,588.5495999827981,True,False
17,3,240.55944250000175,star,"(-480.0, 270.0)",0,2478.6778000416234,599.5713000302203,True,False
17,3,240.57607359997928,star,"(-480.0, 270.0)",0,2495.308900019154,616.2024000077508,True,False
17,3,240.59216389997164,star,"(-480.0, 270.0)",0,2511.3992000115104,632.2927000001073,True,False
17,3,240.60906819999218,star,"(-480.0, 270.0)",0,2528.3035000320524,649.1970000206493,True,False
17,3,240.62954029999673,star,"(-480.0, 270.0)",0,2548.775600036606,669.6691000252031,True,False
17,3,240.6445773000014,star,"(-480.0, 270.0)",0,2563.812600041274,684.7061000298709,True,False
17,3,240.65824309998425,star,"(-480.0, 270.0)",0,2577.4784000241198,698.3719000127167,True,False
17,3,240.67567069997313,star,"(-480.0, 270.0)",0,2594.9060000129975,715.7995000015944,True,False
17,3,240.69129099999554,star,"(-480.0, 270.0)",0,2610.526300035417,731.419800024014,True,False
17,3,240.70967079995899,star,"(-480.0, 270.0)",0,2628.906099998858,749.7995999874547,True,False
17,3,240.72492299997248,star,"(-480.0, 270.0)",0,2644.15830001235,765.051800000947,True,False
17,3,240.74225299997488,star,"(-480.0, 270.0)",0,2661.488300014753,782.3818000033498,True,False
17,3,240.75788019999163,star,"(-480.0, 270.0)",0,2677.115500031505,798.0090000201017,True,False
17,3,240.77635529998224,star,"(-480.0, 270.0)",0,2695.590600022115,816.4841000107117,True,False
17,3,240.79290239996044,star,"(-480.0, 270.0)",0,2712.137700000312,833.0311999889091,True,False
17,3,240.80919129995164,star,"(-480.0, 270.0)",0,2728.426599991508,849.3200999801047,True,False
17,3,240.8258354999707,star,"(-480.0, 270.0)",0,2745.0708000105806,865.9642999991775,True,False
17,3,240.84271080000326,star,"(-480.0, 270.0)",0,2761.946100043133,882.8396000317298,True,False
17,3,240.85809599998174,star,"(-480.0, 270.0)",0,2777.331300021615,898.2248000102118,True,False
17,3,240.8752961999853,star,"(-480.0, 270.0)",0,2794.5315000251867,915.4250000137836,True,False
17,3,240.89154469995992,star,"(-480.0, 270.0)",0,2810.779999999795,931.673499988392,True,False
17,3,240.9089647999499,star,"(-480.0, 270.0)",0,2828.200099989772,949.0935999783687,True,False
17,3,240.92559479997726,star,"(-480.0, 270.0)",0,2844.830100017134,965.723600005731,True,False
17,3,240.9418219999643,star,"(-480.0, 270.0)",0,2861.057300004177,981.9507999927737,True,False
17,3,240.95834029995603,star,"(-480.0, 270.0)",0,2877.5755999959074,998.4690999845043,True,False
17,3,240.97535329998937,star,"(-480.0, 270.0)",0,2894.5886000292376,1015.4821000178345,True,False
17,3,240.99289609998232,star,"(-480.0, 270.0)",0,2912.13140002219,1033.024900010787,True,False
17,3,241.00954840000486,star,"(-480.0, 270.0)",0,2928.7837000447325,1049.6772000333294,True,False
17,3,241.02585729997372,star,"(-480.0, 270.0)",0,2945.092600013595,1065.986100002192,True,False
17,3,241.04331469995668,star,"(-480.0, 270.0)",0,2962.549999996554,1083.443499985151,True,False
17,3,241.05901099997573,star,"(-480.0, 270.0)",0,2978.2463000155985,1099.1398000041954,True,False
17,3,241.07607799995458,star,"(-480.0, 270.0)",0,2995.31329999445,1116.206799983047,True,False
17,3,241.07832199998666,circle,"(-480.0, -270.0)",266.6016999864951,2997.5573000265285,1118.4508000151254,True,False
17,3,241.09522119996836,circle,"(-480.0, -270.0)",0,3014.4565000082366,1135.3499999968335,True,False
17,3,241.11074939998798,circle,"(-480.0, -270.0)",0,3029.9847000278533,1150.8782000164501,True,False
17,3,241.12479159998475,circle,"(-480.0, -270.0)",0,3044.026900024619,1164.9204000132158,True,False
17,3,241.14184840000235,circle,"(-480.0, -270.0)",0,3061.083700042218,1181.9772000308149,True,False
17,3,241.1581872999668,circle,"(-480.0, -270.0)",0,3077.4226000066847,1198.3160999952815,True,False
17,3,241.17581629997585,circle,"(-480.0, -270.0)",0,3095.051600015722,1215.945100004319,True,False
17,3,241.19255259999773,circle,"(-480.0, -270.0)",0,3111.787900037598,1232.6814000261948,True,False
17,3,241.20944589999272,circle,"(-480.0, -270.0)",0,3128.681200032588,1249.574700021185,True,False
17,3,241.22582259995397,circle,"(-480.0, -270.0)",0,3145.0578999938443,1265.9513999824412,True,False
17,3,241.2428596999962,circle,"(-480.0, -270.0)",0,3162.095000036061,1282.9885000246577,True,False
17,3,241.25905759999296,circle,"(-480.0, -270.0)",0,3178.2929000328295,1299.1864000214264,True,False
17,3,241.2758619999513,circle,"(-480.0, -270.0)",0,3195.0972999911755,1315.9907999797724,True,False
17,3,241.29134449997218,circle,"(-480.0, -270.0)",0,3210.579800012056,1331.4733000006527,True,False
17,3,241.30876329995226,circle,"(-480.0, -270.0)",0,3227.9985999921337,1348.8920999807306,True,False
17,3,241.32476039999165,circle,"(-480.0, -270.0)",0,3243.995700031519,1364.8892000201158,True,False
17,3,241.34172719996423,circle,"(-480.0, -270.0)",0,3260.962500004098,1381.8559999926947,True,False
17,3,241.3581307999557,circle,"(-480.0, -270.0)",0,3277.366099995561,1398.2595999841578,True,False
17,3,241.37611339997966,circle,"(-480.0, -270.0)",0,3295.348700019531,1416.2422000081278,True,False
17,3,241.39216759998817,circle,"(-480.0, -270.0)",0,3311.4029000280425,1432.2964000166394,True,False
17,3,241.4090628999984,circle,"(-480.0, -270.0)",0,3328.2982000382617,1449.1917000268586,True,False
17,3,241.42585020000115,circle,"(-480.0, -270.0)",0,3345.085500041023,1465.9790000296198,True,False
17,3,241.44273179996526,circle,"(-480.0, -270.0)",0,3361.967100005131,1482.860599993728,True,False
17,3,241.45860939996783,circle,"(-480.0, -270.0)",0,3377.8447000076994,1498.7381999962963,True,False
17,3,241.47622569999658,circle,"(-480.0, -270.0)",0,3395.4610000364482,1516.3545000250451,True,False
17,3,241.49246369994944,circle,"(-480.0, -270.0)",0,3411.698999989312,1532.592499977909,True,False
17,3,241.50873619999038,circle,"(-480.0, -270.0)",0,3427.971500030253,1548.86500001885,True,False
17,3,241.52485729998443,circle,"(-480.0, -270.0)",0,3444.0926000243053,1564.9861000129022,True,False
17,3,241.54159789998084,circle,"(-480.0, -270.0)",0,3460.8332000207156,1581.7267000093125,True,False
17,3,241.558396599954,circle,"(-480.0, -270.0)",0,3477.6318999938667,1598.5253999824636,True,False
17,3,241.5755371999694,circle,"(-480.0, -270.0)",0,3494.772500009276,1615.6659999978729,True,False
17,3,241.59154729999136,circle,"(-480.0, -270.0)",0,3510.7826000312343,1631.6761000198312,True,False
17,3,241.6106080999598,circle,"(-480.0, -270.0)",0,3529.8433999996632,1650.7368999882601,True,False
17,3,241.62491839996073,circle,"(-480.0, -270.0)",0,3544.1537000006065,1665.0471999892034,True,False
17,3,241.64302399998996,circle,"(-480.0, -270.0)",0,3562.2593000298366,1683.1528000184335,True,False
17,3,241.65934559999732,circle,"(-480.0, -270.0)",0,3578.5809000371955,1699.4744000257924,True,False
17,3,241.6764168999507,circle,"(-480.0, -270.0)",0,3595.6521999905817,1716.5456999791786,True,False
17,3,241.69265219999943,circle,"(-480.0, -270.0)",0,3611.887500039302,1732.7810000278987,True,False
17,3,241.70948259998113,circle,"(-480.0, -270.0)",0,3628.7179000210017,1749.6114000095986,True,False
17,3,241.72601869999198,circle,"(-480.0, -270.0)",0,3645.254000031855,1766.1475000204518,True,False
17,3,241.74289569997927,circle,"(-480.0, -270.0)",0,3662.1310000191443,1783.0245000077412,True,False
17,3,241.7449563999544,circle,"(-480.0, -270.0)",647.9850999894552,3664.1916999942623,1785.0851999828592,False,True
17,4,245.87440089997835,cross,"(480.0, -270.0)",251.19370000902563,7793.636200018227,4129.444500023965,False,True
18,1,249.99347759998636,circle,"(-480.0, -270.0)",0,0.01309998333454132,0.01309998333454132,False,True
18,2,253.47170169994934,t,"(480.0, 270.0)",250.81509997835383,3478.2371999463066,3478.224099962972,False,True
18,3,254.286927499983,t,"(480.0, 270.0)",266.09069999540225,4293.462999979965,815.2258000336587,True,False
18,3,254.31020539999008,t,"(480.0, 270.0)",0,4316.740899987053,838.5037000407465,True,False
18,3,254.32048509997549,t,"(480.0, 270.0)",0,4327.020599972457,848.78340002615,True,False
18,3,254.33801829995355,t,"(480.0, 270.0)",0,4344.553799950518,866.3166000042111,True,False
18,3,254.35415949998423,t,"(480.0, 270.0)",0,4360.694999981206,882.4578000348993,True,False
18,3,254.3712000999949,t,"(480.0, 270.0)",0,4377.7355999918655,899.4984000455588,True,False
18,3,254.38765889999922,t,"(480.0, 270.0)",0,4394.194399996195,915.9572000498883,True,False
18,3,254.40453739999793,t,"(480.0, 270.0)",0,4411.072899994906,932.8357000485994,True,False
18,3,254.42629139998462,t,"(480.0, 270.0)",0,4432.826899981592,954.5897000352852,True,False
18,3,254.43791519996012,t,"(480.0, 270.0)",0,4444.450699957088,966.213500010781,True,False
18,3,254.4537112999824,t,"(480.0, 270.0)",0,4460.246799979359,982.0096000330523,True,False
18,3,254.471113699954,t,"(480.0, 270.0)",0,4477.649199950974,999.4120000046678,True,False
18,3,254.48704859998543,t,"(480.0, 270.0)",0,4493.5840999823995,1015.3469000360928,True,False
18,3,254.5039809999871,t,"(480.0, 270.0)",0,4510.516499984078,1032.2793000377715,True,False
18,3,254.52044449996902,t,"(480.0, 270.0)",0,4526.979999965988,1048.7428000196815,True,False
18,3,254.53805539995665,t,"(480.0, 270.0)",0,4544.590899953619,1066.353700007312,True,False
18,3,254.55468219995964,t,"(480.0, 270.0)",0,4561.2176999566145,1082.9805000103079,True,False
18,3,254.5713271999848,t,"(480.0, 270.0)",0,4577.862699981779,1099.6255000354722,True,False
18,3,254.5878230999806,t,"(480.0, 270.0)",0,4594.358599977568,1116.1214000312611,True,False
18,3,254.60582539997995,t,"(480.0, 270.0)",0,4612.36089997692,1134.1237000306137,True,False
18,3,254.62124549999135,t,"(480.0, 270.0)",0,4627.7809999883175,1149.5438000420108,True,False
18,3,254.64008649997413,t,"(480.0, 270.0)",0,4646.621999971103,1168.3848000247963,True,False
18,3,254.65406779997284,t,"(480.0, 270.0)",0,4660.603299969807,1182.3661000235006,True,False
18,3,254.6707546999678,t,"(480.0, 270.0)",0,4677.290199964773,1199.0530000184663,True,False
18,3,254.68680329999188,t,"(480.0, 270.0)",0,4693.338799988851,1215.1016000425443,True,False
18,3,254.70619820000138,t,"(480.0, 270.0)",0,4712.733699998353,1234.496500052046,True,False
18,3,254.72034770000027,t,"(480.0, 270.0)",0,4726.883199997246,1248.6460000509396,True,False
18,3,254.7375104999519,t,"(480.0, 270.0)",0,4744.045999948867,1265.80880000256,True,False
18,3,254.75369109999156,t,"(480.0, 270.0)",0,4760.226599988528,1281.989400042221,True,False
18,3,254.77159489999758,t,"(480.0, 270.0)",0,4778.130399994552,1299.8932000482455,True,False
18,3,254.77370729995891,cross,"(480.0, -270.0)",250.80989999696612,4780.242799955886,1302.0056000095792,True,False
18,3,254.79088759998558,cross,"(480.0, -270.0)",0,4797.423099982552,1319.1859000362456,True,False
18,3,254.80499340000097,cross,"(480.0, -270.0)",0,4811.528899997938,1333.2917000516318,True,False
18,3,254.82131499995012,cross,"(480.0, -270.0)",0,4827.85049994709,1349.613300000783,True,False
18,3,254.83928109996486,cross,"(480.0, -270.0)",0,4845.816599961836,1367.5794000155292,True,False
18,3,254.85455109999748,cross,"(480.0, -270.0)",0,4861.086599994451,1382.8494000481442,True,False
18,3,254.87264459999278,cross,"(480.0, -270.0)",0,4879.180099989753,1400.9429000434466,True,False
18,3,254.88681900000665,cross,"(480.0, -270.0)",0,4893.354500003625,1415.117300057318,True,False
18,3,254.90377789997729,cross,"(480.0, -270.0)",0,4910.313399974257,1432.07620002795,True,False
18,3,254.92006509995554,cross,"(480.0, -270.0)",0,4926.600599952508,1448.3634000062011,True,False
18,3,254.93760569998994,cross,"(480.0, -270.0)",0,4944.141199986916,1465.9040000406094,True,False
18,3,254.95336439996026,cross,"(480.0, -270.0)",0,4959.899899957236,1481.6627000109293,True,False
18,3,254.97328489995562,cross,"(480.0, -270.0)",0,4979.820399952587,1501.58320000628,True,False
18,3,254.98805119999452,cross,"(480.0, -270.0)",0,4994.586699991487,1516.3495000451803,True,False
18,3,255.0110734999762,cross,"(480.0, -270.0)",0,5017.608999973163,1539.3718000268564,True,False
18,3,255.02586939994944,cross,"(480.0, -270.0)",0,5032.404899946414,1554.1677000001073,True,False
18,3,255.03867509996053,cross,"(480.0, -270.0)",0,5045.2105999575,1566.973400011193,True,False
18,3,255.05490079999436,cross,"(480.0, -270.0)",0,5061.436299991328,1583.1991000450216,True,False
18,3,255.07147510000505,cross,"(480.0, -270.0)",0,5078.010600002017,1599.7734000557102,True,False
18,3,255.08779649995267,cross,"(480.0, -270.0)",0,5094.331999949645,1616.0948000033386,True,False
18,3,255.10456829995383,cross,"(480.0, -270.0)",0,5111.103799950797,1632.8666000044905,True,False
18,3,255.12010689999443,cross,"(480.0, -270.0)",0,5126.642399991397,1648.4052000450902,True,False
18,3,255.13954030000605,cross,"(480.0, -270.0)",0,5146.075800003018,1667.8386000567116,True,False
18,3,255.1543190999655,cross,"(480.0, -270.0)",0,5160.854599962477,1682.61740001617,True,False
18,3,255.17111389996717,cross,"(480.0, -270.0)",0,5177.649399964139,1699.4122000178322,True,False
18,3,255.18772990000434,cross,"(480.0, -270.0)",0,5194.2654000013135,1716.028200055007,True,False
18,3,255.20433279999997,cross,"(480.0, -270.0)",0,5210.868299996946,1732.6311000506394,True,False
18,3,255.2225264000008,cross,"(480.0, -270.0)",0,5229.06189999776,1750.824700051453,True,False
18,3,255.2381355999969,cross,"(480.0, -270.0)",0,5244.671099993866,1766.4339000475593,True,False
18,3,255.254779699957,cross,"(480.0, -270.0)",0,5261.31519995397,1783.078000007663,True,False
18,3,255.25701259996276,cross,"(480.0, -270.0)",463.71499996166676,5263.548099959735,1785.3109000134282,False,True
18,4,259.61923929996556,circle,"(-480.0, -270.0)",266.03289996273816,9625.774799962528,4362.226700002793,False,True
