trial_num,selection_num,timestamp,shape,position,fixation_duration_ms,rt_from_trial_start_ms,rt_from_previous_selection_ms,queued_selection,was_executed
13,1,199.9025571999373,circle,"(-480.0, -270.0)",0,0.02010003663599491,0.02010003663599491,False,True
13,2,200.66764599992894,circle,"(-480.0, -270.0)",266.61219995003194,765.1089000282809,765.0887999916449,True,False
13,2,200.68667949992232,circle,"(-480.0, -270.0)",0,784.1424000216648,784.1222999850288,True,False
13,2,200.700285699917,circle,"(-480.0, -270.0)",0,797.7486000163481,797.7284999797121,True,False
13,2,200.71690519992262,circle,"(-480.0, -270.0)",0,814.3681000219658,814.3479999853298,True,False
13,2,200.73513749998529,circle,"(-480.0, -270.0)",0,832.6004000846297,832.5803000479937,True,False
13,2,200.75048909999896,circle,"(-480.0, -270.0)",0,847.952000098303,847.931900061667,True,False
13,2,200.7669441999169,circle,"(-480.0, -270.0)",0,864.4071000162512,864.3869999796152,True,False
13,2,200.78394729993306,circle,"(-480.0, -270.0)",0,881.4102000324056,881.3900999957696,True,False
13,2,200.80059489991982,circle,"(-480.0, -270.0)",0,898.0578000191599,898.0376999825239,True,False
13,2,200.8182344000088,circle,"(-480.0, -270.0)",0,915.6973001081496,915.6772000715137,True,False
13,2,200.83452029991895,circle,"(-480.0, -270.0)",0,931.9832000182942,931.9630999816582,True,False
13,2,200.85124599991832,circle,"(-480.0, -270.0)",0,948.7089000176638,948.6887999810278,True,False
13,2,200.86797859997023,circle,"(-480.0, -270.0)",0,965.4415000695735,965.4214000329375,True,False
13,2,200.88448479992803,circle,"(-480.0, -270.0)",0,981.9477000273764,981.9275999907404,True,False
13,2,200.90088879992254,circle,"(-480.0, -270.0)",0,998.3517000218853,998.3315999852493,True,False
13,2,200.9179078999441,circle,"(-480.0, -270.0)",0,1015.3708000434563,1015.3507000068203,True,False
13,2,200.93557049997617,circle,"(-480.0, -270.0)",0,1033.0334000755101,1033.0133000388741,True,False
13,2,200.95046389999334,circle,"(-480.0, -270.0)",0,1047.9268000926822,1047.9067000560462,True,False
13,2,200.96699649991933,circle,"(-480.0, -270.0)",0,1064.4594000186771,1064.4392999820411,True,False
13,2,200.98360989999492,circle,"(-480.0, -270.0)",0,1081.0728000942618,1081.0527000576258,True,False
13,2,201.00070380000398,circle,"(-480.0, -270.0)",0,1098.1667001033202,1098.1466000666842,True,False
13,2,201.01708929997403,circle,"(-480.0, -270.0)",0,1114.5522000733763,1114.5321000367403,True,False
13,2,201.03377479990013,circle,"(-480.0, -270.0)",0,1131.237699999474,1131.217599962838,True,False
13,2,201.05138489999808,circle,"(-480.0, -270.0)",0,1148.8478000974283,1148.8277000607923,True,False
13,2,201.06791999994311,circle,"(-480.0, -270.0)",0,1165.3829000424594,1165.3628000058234,True,False
13,2,201.08433429989964,circle,"(-480.0, -270.0)",0,1181.7971999989823,1181.7770999623463,True,False
13,2,201.10088399995584,circle,"(-480.0, -270.0)",0,1198.346900055185,1198.326800018549,True,False
13,2,201.117655799957,circle,"(-480.0, -270.0)",0,1215.1187000563368,1215.0986000197008,True,False
13,2,201.13426670001354,circle,"(-480.0, -270.0)",0,1231.7296001128852,1231.7095000762492,True,False
13,2,201.15104199992493,circle,"(-480.0, -270.0)",0,1248.5049000242725,1248.4847999876365,True,False
13,2,201.16666019998956,circle,"(-480.0, -270.0)",0,1264.1231000889093,1264.1030000522733,True,False
13,2,201.1830640999833,circle,"(-480.0, -270.0)",0,1280.5270000826567,1280.5069000460207,True,False
13,2,201.20032999990508,circle,"(-480.0, -270.0)",0,1297.7929000044242,1297.7727999677882,True,False
13,2,201.21665219997521,circle,"(-480.0, -270.0)",0,1314.1151000745595,1314.0950000379235,True,False
13,2,201.23318549990654,circle,"(-480.0, -270.0)",0,1330.6484000058845,1330.6282999692485,True,False
13,2,201.25036860001273,circle,"(-480.0, -270.0)",0,1347.831500112079,1347.811400075443,True,False
13,2,201.2670986999292,circle,"(-480.0, -270.0)",0,1364.5616000285372,1364.5414999919012,True,False
13,2,201.28345260000788,circle,"(-480.0, -270.0)",0,1380.9155001072213,1380.8954000705853,True,False
13,2,201.3004890999291,circle,"(-480.0, -270.0)",0,1397.9520000284538,1397.9318999918178,True,False
13,2,201.31776229990646,circle,"(-480.0, -270.0)",0,1415.225200005807,1415.205099969171,True,False
13,2,201.33426209993195,circle,"(-480.0, -270.0)",0,1431.7250000312924,1431.7048999946564,True,False
13,2,201.35094989999197,circle,"(-480.0, -270.0)",0,1448.4128000913188,1448.3927000546828,True,False
13,2,201.3677770999493,circle,"(-480.0, -270.0)",0,1465.2400000486523,1465.2199000120163,True,False
13,2,201.38427619996946,circle,"(-480.0, -270.0)",0,1481.7391000688076,1481.7190000321716,True,False
13,2,201.4010407999158,circle,"(-480.0, -270.0)",0,1498.503700015135,1498.4835999784991,True,False
13,2,201.41744989994913,circle,"(-480.0, -270.0)",0,1514.912800048478,1514.892700011842,True,False
13,2,201.43408929998986,circle,"(-480.0, -270.0)",0,1531.5522000892088,1531.5321000525728,True,False
13,2,201.4500644999789,circle,"(-480.0, -270.0)",0,1547.527400078252,1547.507300041616,True,False
13,2,201.46648669999558,circle,"(-480.0, -270.0)",0,1563.9496000949293,1563.9295000582933,True,False
13,2,201.4834805999417,circle,"(-480.0, -270.0)",0,1580.9435000410303,1580.9234000043944,True,False
13,2,201.50001719989814,circle,"(-480.0, -270.0)",0,1597.4800999974832,1597.4599999608472,True,False
13,2,201.51649710000493,circle,"(-480.0, -270.0)",0,1613.9600001042709,1613.9399000676349,True,False
13,2,201.53318909998052,circle,"(-480.0, -270.0)",0,1630.6520000798628,1630.6319000432268,True,False
13,2,201.54993229999673,circle,"(-480.0, -270.0)",0,1647.3952000960708,1647.3751000594348,True,False
13,2,201.5673854999477,circle,"(-480.0, -270.0)",0,1664.848400047049,1664.828300010413,True,False
13,2,201.58409599994775,circle,"(-480.0, -270.0)",0,1681.5589000470936,1681.5388000104576,True,False
13,2,201.60069759993348,circle,"(-480.0, -270.0)",0,1698.1605000328273,1698.1403999961913,True,False
13,2,201.6177007999504,circle,"(-480.0, -270.0)",0,1715.163700049743,1715.143600013107,True,False
13,2,201.63408599991817,circle,"(-480.0, -270.0)",0,1731.5489000175148,1731.5287999808788,True,False
13,2,201.65150719997473,circle,"(-480.0, -270.0)",0,1748.9701000740752,1748.9500000374392,True,False
13,2,201.6676571998978,circle,"(-480.0, -270.0)",0,1765.120099997148,1765.099999960512,True,False
13,2,201.68425519997254,circle,"(-480.0, -270.0)",0,1781.7181000718847,1781.6980000352487,True,False
13,2,201.69960329995956,circle,"(-480.0, -270.0)",0,1797.0662000589073,1797.0461000222713,True,False
14,1,207.21499139990192,circle,"(-480.0, -270.0)",0,0.019399914890527725,0.019399914890527725,False,True
15,1,221.24386329995468,circle,"(-480.0, -270.0)",0,0.018000020645558834,0.018000020645558834,False,True
15,2,224.1764391999459,cross,"(480.0, -270.0)",266.65000000502914,2932.5939000118524,2932.575899991207,False,True
15,3,224.44199389999267,cross,"(480.0, -270.0)",261.97099999990314,3198.14860005863,265.5547000467777,True,False
15,3,224.46240259998012,cross,"(480.0, -270.0)",0,3218.5573000460863,285.9634000342339,True,False
15,3,224.47630229999777,cross,"(480.0, -270.0)",0,3232.4570000637323,299.8631000518799,True,False
15,3,224.49256689997856,cross,"(480.0, -270.0)",0,3248.7216000445187,316.1277000326663,True,False
15,3,224.51037079992238,cross,"(480.0, -270.0)",0,3266.5254999883473,333.9315999764949,True,False
15,3,224.5271007999545,cross,"(480.0, -270.0)",0,3283.2555000204593,350.6616000086069,True,False
15,3,224.5435901999008,cross,"(480.0, -270.0)",0,3299.744899966754,367.15099995490164,True,False
15,3,224.5600935999537,cross,"(480.0, -270.0)",0,3316.2483000196517,383.65440000779927,True,False
15,3,224.576914699981,cross,"(480.0, -270.0)",0,3333.069400046952,400.4755000350997,True,False
15,3,224.59374129993375,cross,"(480.0, -270.0)",0,3349.895999999717,417.3020999878645,True,False
15,3,224.61008999997284,cross,"(480.0, -270.0)",0,3366.2447000388056,433.6508000269532,True,False
15,3,224.6259303999832,cross,"(480.0, -270.0)",0,3382.085100049153,449.4912000373006,True,False
15,3,224.64368969993666,cross,"(480.0, -270.0)",0,3399.844400002621,467.25049999076873,True,False
15,3,224.65923419990577,cross,"(480.0, -270.0)",0,3415.388899971731,482.7949999598786,True,False
15,3,224.67602239991538,cross,"(480.0, -270.0)",0,3432.1770999813452,499.58319996949285,True,False
15,3,224.6928687999025,cross,"(480.0, -270.0)",0,3449.0234999684617,516.4295999566093,True,False
15,3,224.7092523999745,cross,"(480.0, -270.0)",0,3465.4071000404656,532.8132000286132,True,False
15,3,224.72639769990928,cross,"(480.0, -270.0)",0,3482.5523999752477,549.9584999633953,True,False
15,3,224.7429418999236,cross,"(480.0, -270.0)",0,3499.0965999895707,566.5026999777183,True,False
15,3,224.7603342999937,cross,"(480.0, -270.0)",0,3516.4890000596642,583.8951000478119,True,False
15,3,224.77697729994543,cross,"(480.0, -270.0)",0,3533.132000011392,600.5380999995396,True,False
15,3,224.7935456999112,cross,"(480.0, -270.0)",0,3549.700399977155,617.1064999653026,True,False
15,3,224.8119491999969,cross,"(480.0, -270.0)",0,3568.1039000628516,635.5100000509992,True,False
15,3,224.8268276999006,cross,"(480.0, -270.0)",0,3582.9823999665678,650.3884999547154,True,False
15,3,224.84343659994192,cross,"(480.0, -270.0)",0,3599.591300007887,666.9973999960348,True,False
15,3,224.86036299995612,cross,"(480.0, -270.0)",0,3616.5177000220865,683.9238000102341,True,False
15,3,224.87681299995165,cross,"(480.0, -270.0)",0,3632.967700017616,700.3738000057638,True,False
15,3,224.89291870000307,cross,"(480.0, -270.0)",0,3649.073400069028,716.4795000571758,True,False
15,3,224.90918939991388,cross,"(480.0, -270.0)",0,3665.3440999798477,732.7501999679953,True,False
15,3,224.92635679990053,cross,"(480.0, -270.0)",0,3682.5114999664947,749.9175999546424,True,False
15,3,224.94290129991714,cross,"(480.0, -270.0)",0,3699.055999983102,766.4620999712497,True,False
15,3,224.9593364999164,cross,"(480.0, -270.0)",0,3715.4911999823526,782.8972999705002,True,False
15,3,224.97617399995215,cross,"(480.0, -270.0)",0,3732.3287000181153,799.734800006263,True,False
15,3,224.99349799996708,cross,"(480.0, -270.0)",0,3749.652700033039,817.0588000211865,True,False
15,3,225.01001069997437,cross,"(480.0, -270.0)",0,3766.165400040336,833.5715000284836,True,False
15,3,225.02681770001072,cross,"(480.0, -270.0)",0,3782.9724000766873,850.378500064835,True,False
15,3,225.04354059998877,cross,"(480.0, -270.0)",0,3799.6953000547364,867.101400042884,True,False
15,3,225.06007319991477,cross,"(480.0, -270.0)",0,3816.2278999807313,883.6339999688789,True,False
15,3,225.07684629992582,cross,"(480.0, -270.0)",0,3833.000999991782,900.4070999799296,True,False
15,3,225.09350179997273,cross,"(480.0, -270.0)",0,3849.656500038691,917.0626000268385,True,False
15,3,225.1103653999744,cross,"(480.0, -270.0)",0,3866.5201000403613,933.9262000285089,True,False
15,3,225.12594940001145,cross,"(480.0, -270.0)",0,3882.104100077413,949.5102000655606,True,False
15,3,225.14237929997034,cross,"(480.0, -270.0)",0,3898.5340000363067,965.9401000244543,True,False
15,3,225.15934439992998,cross,"(480.0, -270.0)",0,3915.499099995941,982.9051999840885,True,False
15,3,225.17596219992265,cross,"(480.0, -270.0)",0,3932.116899988614,999.5229999767616,True,False
15,3,225.19309539999813,cross,"(480.0, -270.0)",0,3949.2501000640914,1016.656200052239,True,False
15,3,225.20970469992608,cross,"(480.0, -270.0)",0,3965.8593999920413,1033.265499980189,True,False
15,3,225.22664149990305,cross,"(480.0, -270.0)",0,3982.796199969016,1050.2022999571636,True,False
15,3,225.24303029989824,cross,"(480.0, -270.0)",0,3999.1849999642,1066.5910999523476,True,False
15,3,225.25961159996223,cross,"(480.0, -270.0)",0,4015.76630002819,1083.1724000163376,True,False
15,3,225.27624199993443,cross,"(480.0, -270.0)",0,4032.3967000003904,1099.802799988538,True,False
15,3,225.2929473000113,cross,"(480.0, -270.0)",0,4049.102000077255,1116.5081000654027,True,False
15,3,225.3098140999209,cross,"(480.0, -270.0)",0,4065.9687999868765,1133.3748999750242,True,False
15,3,225.32640759996139,cross,"(480.0, -270.0)",0,4082.562300027348,1149.9684000154957,True,False
15,3,225.34212980000302,cross,"(480.0, -270.0)",0,4098.284500068985,1165.6906000571325,True,False
15,3,225.35927089990582,cross,"(480.0, -270.0)",0,4115.425599971786,1182.8316999599338,True,False
15,3,225.3752625999041,cross,"(480.0, -270.0)",0,4131.417299970053,1198.8233999582008,True,False
15,3,225.39200729993172,cross,"(480.0, -270.0)",0,4148.161999997683,1215.5680999858305,True,False
15,3,225.40928029990755,cross,"(480.0, -270.0)",0,4165.434999973513,1232.8410999616608,True,False
15,3,225.42592099995818,cross,"(480.0, -270.0)",0,4182.075700024143,1249.4818000122905,True,False
15,3,225.44317499990575,cross,"(480.0, -270.0)",0,4199.329699971713,1266.7357999598607,True,False
15,3,225.45974839990959,cross,"(480.0, -270.0)",0,4215.903099975549,1283.3091999636963,True,False
15,3,225.47640769998543,cross,"(480.0, -270.0)",0,4232.562400051393,1299.9685000395402,True,False
15,3,225.49285489995964,cross,"(480.0, -270.0)",0,4249.009600025602,1316.4157000137493,True,False
15,3,225.5095534999855,cross,"(480.0, -270.0)",0,4265.708200051449,1333.1143000395969,True,False
15,3,225.52676009992138,cross,"(480.0, -270.0)",0,4282.9147999873385,1350.320899975486,True,False
15,3,225.54228009993676,cross,"(480.0, -270.0)",0,4298.434800002724,1365.8408999908715,True,False
15,3,225.55900489992928,cross,"(480.0, -270.0)",0,4315.159599995241,1382.5656999833882,True,False
15,3,225.57598229998257,cross,"(480.0, -270.0)",0,4332.137000048533,1399.5431000366807,True,False
15,3,225.59251369989943,cross,"(480.0, -270.0)",0,4348.668399965391,1416.0744999535382,True,False
15,3,225.60916170000564,cross,"(480.0, -270.0)",0,4365.316400071606,1432.7225000597537,True,False
15,3,225.62597950000782,cross,"(480.0, -270.0)",0,4382.134200073779,1449.5403000619262,True,False
15,3,225.64252829994075,cross,"(480.0, -270.0)",0,4398.683000006713,1466.0890999948606,True,False
15,3,225.65981340000872,cross,"(480.0, -270.0)",0,4415.968100074679,1483.3742000628263,True,False
15,3,225.67658400000073,cross,"(480.0, -270.0)",0,4432.738700066693,1500.1448000548407,True,False
15,3,225.6931657999521,cross,"(480.0, -270.0)",0,4449.320500018075,1516.7266000062227,True,False
15,3,225.70993769995403,cross,"(480.0, -270.0)",0,4466.092400019988,1533.498500008136,True,False
15,3,225.7265360999154,cross,"(480.0, -270.0)",0,4482.690799981356,1550.0968999695033,True,False
15,3,225.74315369990654,cross,"(480.0, -270.0)",0,4499.308399972506,1566.7144999606535,True,False
15,3,225.75977020000573,cross,"(480.0, -270.0)",0,4515.924900071695,1583.331000059843,True,False
15,3,225.77637679991312,cross,"(480.0, -270.0)",0,4532.531499979086,1599.9375999672338,True,False
15,3,225.79300579999108,cross,"(480.0, -270.0)",0,4549.160500057042,1616.5666000451893,True,False
15,3,225.80875299999025,cross,"(480.0, -270.0)",0,4564.90770005621,1632.3138000443578,True,False
15,3,225.82593829999678,cross,"(480.0, -270.0)",0,4582.093000062741,1649.499100050889,True,False
15,3,225.8422361999983,cross,"(480.0, -270.0)",0,4598.39090006426,1665.7970000524074,True,False
15,3,225.85883859999012,cross,"(480.0, -270.0)",0,4614.993300056085,1682.3994000442326,True,False
15,3,225.8760679999832,cross,"(480.0, -270.0)",0,4632.222700049169,1699.628800037317,True,False
15,3,225.89277219993528,cross,"(480.0, -270.0)",0,4648.926900001243,1716.3329999893904,True,False
15,3,225.90942619997077,cross,"(480.0, -270.0)",0,4665.58090003673,1732.9870000248775,True,False
15,3,225.92640329990536,cross,"(480.0, -270.0)",0,4682.557999971323,1749.9640999594703,True,False
15,3,225.9429300999036,cross,"(480.0, -270.0)",0,4699.084799969569,1766.4908999577165,True,False
15,3,225.95963619998656,cross,"(480.0, -270.0)",0,4715.790900052525,1783.1970000406727,True,False
15,3,225.97614459996112,cross,"(480.0, -270.0)",0,4732.29930002708,1799.7054000152275,True,False
16,1,233.4917685999535,circle,"(-480.0, -270.0)",0,0.02220005262643099,0.02220005262643099,False,True
16,2,234.05670209997334,circle,"(-480.0, -270.0)",266.8466999894008,564.9557000724599,564.9335000198334,True,False
16,2,234.0764716999838,circle,"(-480.0, -270.0)",0,584.7253000829369,584.7031000303105,True,False
16,2,234.093516599969,circle,"(-480.0, -270.0)",0,601.7702000681311,601.7480000155047,True,False
16,2,234.10703109996393,circle,"(-480.0, -270.0)",0,615.2847000630572,615.2625000104308,True,False
16,2,234.1235839999281,circle,"(-480.0, -270.0)",0,631.837600027211,631.8153999745846,True,False
16,2,234.14029339991976,circle,"(-480.0, -270.0)",0,648.5470000188798,648.5247999662533,True,False
16,2,234.1571995000122,circle,"(-480.0, -270.0)",0,665.4531001113355,665.4309000587091,True,False
16,2,234.17290219990537,circle,"(-480.0, -270.0)",0,681.1558000044897,681.1335999518633,True,False
16,2,234.18938749993686,circle,"(-480.0, -270.0)",0,697.6411000359803,697.6188999833539,True,False
16,2,234.20606889994815,circle,"(-480.0, -270.0)",0,714.3225000472739,714.3002999946475,True,False
16,2,234.22271409991663,circle,"(-480.0, -270.0)",0,730.9677000157535,730.9454999631271,True,False
16,2,234.2393776999088,circle,"(-480.0, -270.0)",0,747.6313000079244,747.609099955298,True,False
16,2,234.25648009998258,circle,"(-480.0, -270.0)",0,764.733700081706,764.7115000290796,True,False
16,2,234.27308730001096,circle,"(-480.0, -270.0)",0,781.3409001100808,781.3187000574544,True,False
16,2,234.28988269995898,circle,"(-480.0, -270.0)",0,798.1363000581041,798.1141000054777,True,False
16,2,234.3062343999045,circle,"(-480.0, -270.0)",0,814.488000003621,814.4657999509946,True,False
16,2,234.32357020000927,circle,"(-480.0, -270.0)",0,831.8238001083955,831.8016000557691,True,False
16,2,234.34037689992692,circle,"(-480.0, -270.0)",0,848.6305000260472,848.6082999734208,True,False
16,2,234.35688949993346,circle,"(-480.0, -270.0)",0,865.1431000325829,865.1208999799564,True,False
16,2,234.37375349993818,circle,"(-480.0, -270.0)",0,882.0071000372991,881.9848999846727,True,False
16,2,234.39046009990852,circle,"(-480.0, -270.0)",0,898.7137000076473,898.6914999550208,True,False
16,2,234.40702089993283,circle,"(-480.0, -270.0)",0,915.2745000319555,915.2522999793291,True,False
16,2,234.42373999999836,circle,"(-480.0, -270.0)",0,931.9936000974849,931.9714000448585,True,False
16,2,234.43928629998118,circle,"(-480.0, -270.0)",0,947.5399000803009,947.5177000276744,True,False
16,2,234.45612659992184,circle,"(-480.0, -270.0)",0,964.3802000209689,964.3579999683425,True,False
16,2,234.47246550000273,circle,"(-480.0, -270.0)",0,980.7191001018509,980.6969000492245,True,False
16,2,234.48932679998688,circle,"(-480.0, -270.0)",0,997.580400086008,997.5582000333816,True,False
16,2,234.50605919992086,circle,"(-480.0, -270.0)",0,1014.3128000199795,1014.290599967353,True,False
16,2,234.5232296999311,circle,"(-480.0, -270.0)",0,1031.4833000302315,1031.461099977605,True,False
16,2,234.5392440999858,circle,"(-480.0, -270.0)",0,1047.4977000849321,1047.4755000323057,True,False
16,2,234.55701180000324,circle,"(-480.0, -270.0)",0,1065.265400102362,1065.2432000497356,True,False
16,2,234.5736269999761,circle,"(-480.0, -270.0)",0,1081.8806000752375,1081.858400022611,True,False
16,2,234.5902824999066,circle,"(-480.0, -270.0)",0,1098.536100005731,1098.5138999531046,True,False
16,2,234.60695389995817,circle,"(-480.0, -270.0)",0,1115.207500057295,1115.1853000046685,True,False
16,2,234.6237194999121,circle,"(-480.0, -270.0)",0,1131.973100011237,1131.9508999586105,True,False
16,2,234.6402902000118,circle,"(-480.0, -270.0)",0,1148.5438001109287,1148.5216000583023,True,False
16,2,234.65726479992736,circle,"(-480.0, -270.0)",0,1165.5184000264853,1165.496199973859,True,False
16,2,234.67226399993524,circle,"(-480.0, -270.0)",0,1180.5176000343636,1180.4953999817371,True,False
16,2,234.68941729993094,circle,"(-480.0, -270.0)",0,1197.6709000300616,1197.6486999774352,True,False
16,2,234.70613750000484,circle,"(-480.0, -270.0)",0,1214.391100103967,1214.3689000513405,True,False
16,2,234.72240619990043,circle,"(-480.0, -270.0)",0,1230.6597999995574,1230.637599946931,True,False
16,2,234.73968060000334,circle,"(-480.0, -270.0)",0,1247.9342001024634,1247.912000049837,True,False
16,2,234.75616899994202,circle,"(-480.0, -270.0)",0,1264.4226000411436,1264.4003999885172,True,False
16,2,234.77282750001177,circle,"(-480.0, -270.0)",0,1281.081100110896,1281.0589000582695,True,False
16,2,234.7893325999612,circle,"(-480.0, -270.0)",0,1297.5862000603229,1297.5640000076964,True,False
16,2,234.8070172999287,circle,"(-480.0, -270.0)",0,1315.2709000278264,1315.2486999752,True,False
16,2,234.82347840000875,circle,"(-480.0, -270.0)",0,1331.732000107877,1331.7098000552505,True,False
16,2,234.84030359995086,circle,"(-480.0, -270.0)",0,1348.5572000499815,1348.534999997355,True,False
16,2,234.85704659996554,circle,"(-480.0, -270.0)",0,1365.3002000646666,1365.2780000120401,True,False
16,2,234.87395129993092,circle,"(-480.0, -270.0)",0,1382.2049000300467,1382.1826999774203,True,False
16,2,234.89030329999514,circle,"(-480.0, -270.0)",0,1398.5569000942633,1398.5347000416368,True,False
16,2,234.9056323999539,circle,"(-480.0, -270.0)",0,1413.8860000530258,1413.8638000003994,True,False
16,2,234.92245509999339,circle,"(-480.0, -270.0)",0,1430.7087000925094,1430.686500039883,True,False
16,2,234.93953579990193,circle,"(-480.0, -270.0)",0,1447.7894000010565,1447.76719994843,True,False
16,2,234.95585019991267,circle,"(-480.0, -270.0)",0,1464.1038000117987,1464.0815999591723,True,False
16,2,234.97262239991687,circle,"(-480.0, -270.0)",0,1480.8760000159964,1480.85379996337,True,False
16,2,234.9899238999933,circle,"(-480.0, -270.0)",0,1498.1775000924245,1498.155300039798,True,False
16,2,235.00706779991742,circle,"(-480.0, -270.0)",0,1515.3214000165462,1515.2991999639198,True,False
16,2,235.0235649999231,circle,"(-480.0, -270.0)",0,1531.818600022234,1531.7963999696076,True,False
16,2,235.04012969997711,circle,"(-480.0, -270.0)",0,1548.3833000762388,1548.3611000236124,True,False
16,2,235.0567919999594,circle,"(-480.0, -270.0)",0,1565.045600058511,1565.0234000058845,True,False
16,2,235.07355089997873,circle,"(-480.0, -270.0)",0,1581.8045000778511,1581.7823000252247,True,False
16,2,235.09005469991826,circle,"(-480.0, -270.0)",0,1598.3083000173792,1598.2860999647528,True,False
16,2,235.1066545000067,circle,"(-480.0, -270.0)",0,1614.908100105822,1614.8859000531957,True,False
16,2,235.1232090999838,circle,"(-480.0, -270.0)",0,1631.4627000829205,1631.440500030294,True,False
16,2,235.13984690001234,circle,"(-480.0, -270.0)",0,1648.1005001114681,1648.0783000588417,True,False
16,2,235.1563208999578,circle,"(-480.0, -270.0)",0,1664.574500056915,1664.5523000042886,True,False
16,2,235.17310299992096,circle,"(-480.0, -270.0)",0,1681.3566000200808,1681.3343999674544,True,False
16,2,235.18891409994103,circle,"(-480.0, -270.0)",0,1697.1677000401542,1697.1454999875277,True,False
16,2,235.20531029999256,circle,"(-480.0, -270.0)",0,1713.5639000916854,1713.541700039059,True,False
16,2,235.2225591999013,circle,"(-480.0, -270.0)",0,1730.8128000004217,1730.7905999477953,True,False
16,2,235.239253000007,circle,"(-480.0, -270.0)",0,1747.506600106135,1747.4844000535086,True,False
16,2,235.25570380000863,circle,"(-480.0, -270.0)",0,1763.9574001077563,1763.9352000551298,True,False
16,2,235.27209839993156,circle,"(-480.0, -270.0)",0,1780.352000030689,1780.3297999780625,True,False
17,1,247.46919609990437,circle,"(-480.0, -270.0)",0,0.018299906514585018,0.018299906514585018,False,True
17,2,248.40276639990043,circle,"(-480.0, -270.0)",266.92749990615994,933.5885999025777,933.5702999960631,True,False
17,2,248.42159799998626,circle,"(-480.0, -270.0)",0,952.4201999884099,952.4019000818953,True,False
17,2,248.4355949999299,circle,"(-480.0, -270.0)",0,966.4171999320388,966.3989000255242,True,False
17,2,248.45122479996644,circle,"(-480.0, -270.0)",0,982.0469999685884,982.0287000620738,True,False
17,2,248.4683716999134,circle,"(-480.0, -270.0)",0,999.1938999155536,999.175600009039,True,False
17,2,248.48472359997686,circle,"(-480.0, -270.0)",0,1015.5457999790087,1015.5275000724941,True,False
17,2,248.5014423999237,circle,"(-480.0, -270.0)",0,1032.2645999258384,1032.2463000193238,True,False
17,2,248.51825219998136,circle,"(-480.0, -270.0)",0,1049.0743999835104,1049.0561000769958,True,False
17,2,248.53461629990488,circle,"(-480.0, -270.0)",0,1065.4384999070317,1065.420200000517,True,False
17,2,248.55145659996197,circle,"(-480.0, -270.0)",0,1082.278799964115,1082.2605000576004,True,False
17,2,248.5691616999684,circle,"(-480.0, -270.0)",0,1099.983899970539,1099.9656000640243,True,False
17,2,248.58575979992747,circle,"(-480.0, -270.0)",0,1116.5819999296218,1116.5637000231072,True,False
17,2,248.60241970000789,circle,"(-480.0, -270.0)",0,1133.2419000100344,1133.2236001035199,True,False
17,2,248.6190934999613,circle,"(-480.0, -270.0)",0,1149.9156999634579,1149.8974000569433,True,False
17,2,248.63578479993157,circle,"(-480.0, -270.0)",0,1166.6069999337196,1166.588700027205,True,False
17,2,248.65236939990427,circle,"(-480.0, -270.0)",0,1183.1915999064222,1183.1732999999076,True,False
17,2,248.66895049996674,circle,"(-480.0, -270.0)",0,1199.7726999688894,1199.7544000623748,True,False
17,2,248.68501109990757,circle,"(-480.0, -270.0)",0,1215.8332999097183,1215.8150000032037,True,False
17,2,248.70189069991466,circle,"(-480.0, -270.0)",0,1232.7128999168053,1232.6946000102907,True,False
17,2,248.7180283999769,circle,"(-480.0, -270.0)",0,1248.8505999790505,1248.8323000725359,True,False
17,2,248.7349213999696,circle,"(-480.0, -270.0)",0,1265.7435999717563,1265.7253000652418,True,False
17,2,248.7514283999335,circle,"(-480.0, -270.0)",0,1282.2505999356508,1282.2323000291362,True,False
17,2,248.7678731000051,circle,"(-480.0, -270.0)",0,1298.695300007239,1298.6770001007244,True,False
17,2,248.78544309991412,circle,"(-480.0, -270.0)",0,1316.2652999162674,1316.2470000097528,True,False
17,2,248.8018631999148,circle,"(-480.0, -270.0)",0,1332.6853999169543,1332.6671000104398,True,False
17,2,248.81862699997146,circle,"(-480.0, -270.0)",0,1349.4491999736056,1349.430900067091,True,False
17,2,248.83547299995553,circle,"(-480.0, -270.0)",0,1366.2951999576762,1366.2769000511616,True,False
17,2,248.85212609998416,circle,"(-480.0, -270.0)",0,1382.9482999863103,1382.9300000797957,True,False
17,2,248.86866419995204,circle,"(-480.0, -270.0)",0,1399.486399954185,1399.4681000476703,True,False
17,2,248.8853214000119,circle,"(-480.0, -270.0)",0,1416.1436000140384,1416.1253001075238,True,False
17,2,248.90215529990382,circle,"(-480.0, -270.0)",0,1432.9774999059737,1432.959199999459,True,False
17,2,248.91759470000397,circle,"(-480.0, -270.0)",0,1448.416900006123,1448.3986000996083,True,False
17,2,248.9346464999253,circle,"(-480.0, -270.0)",0,1465.4686999274418,1465.4504000209272,True,False
17,2,248.95128949999344,circle,"(-480.0, -270.0)",0,1482.1116999955848,1482.0934000890702,True,False
17,2,248.96809350000694,circle,"(-480.0, -270.0)",0,1498.9157000090927,1498.897400102578,True,False
17,2,248.98508899996523,circle,"(-480.0, -270.0)",0,1515.911199967377,1515.8929000608623,True,False
17,2,249.0036888999166,circle,"(-480.0, -270.0)",0,1534.5110999187455,1534.4928000122309,True,False
17,2,249.01801499992143,circle,"(-480.0, -270.0)",0,1548.8371999235824,1548.8189000170678,True,False
17,2,249.03461480000988,circle,"(-480.0, -270.0)",0,1565.4370000120252,1565.4187001055107,True,False
17,2,249.05154849996325,circle,"(-480.0, -270.0)",0,1582.370699965395,1582.3524000588804,True,False
17,2,249.06912339990959,circle,"(-480.0, -270.0)",0,1599.9455999117345,1599.9273000052199,True,False
17,2,249.08590189996175,circle,"(-480.0, -270.0)",0,1616.7240999639034,1616.7058000573888,True,False
17,2,249.10249379999004,circle,"(-480.0, -270.0)",0,1633.3159999921918,1633.2977000856772,True,False
17,2,249.11870349990204,circle,"(-480.0, -270.0)",0,1649.5256999041885,1649.507399997674,True,False
17,2,249.1357796000084,circle,"(-480.0, -270.0)",0,1666.6018000105396,1666.583500104025,True,False
17,2,249.1520934998989,circle,"(-480.0, -270.0)",0,1682.9156999010593,1682.8973999945447,True,False
17,2,249.16903739992995,circle,"(-480.0, -270.0)",0,1699.859599932097,1699.8413000255823,True,False
17,2,249.18559119990095,circle,"(-480.0, -270.0)",0,1716.4133999031037,1716.3950999965891,True,False
17,2,249.2011922999518,circle,"(-480.0, -270.0)",0,1732.014499953948,1731.9962000474334,True,False
17,2,249.2179010999389,circle,"(-480.0, -270.0)",0,1748.723299941048,1748.7050000345334,True,False
17,2,249.2347443999024,circle,"(-480.0, -270.0)",0,1765.5665999045596,1765.548299998045,True,False
17,2,249.25094239995815,circle,"(-480.0, -270.0)",0,1781.7645999602973,1781.7463000537828,True,False
18,1,254.7828545999946,circle,"(-480.0, -270.0)",0,0.01680001150816679,0.01680001150816679,False,True
18,2,255.05010059999768,circle,"(-480.0, -270.0)",265.3680000221357,267.2628000145778,267.24600000306964,True,False
18,2,255.0699295999948,circle,"(-480.0, -270.0)",0,287.09180001169443,287.07500000018626,True,False
18,2,255.08283669990487,circle,"(-480.0, -270.0)",0,299.99889992177486,299.9820999102667,True,False
18,2,255.09960690001026,circle,"(-480.0, -270.0)",0,316.76910002715886,316.7523000156507,True,False
18,2,255.115985399927,circle,"(-480.0, -270.0)",0,333.1475999439135,333.13079993240535,True,False
18,2,255.13255079998635,circle,"(-480.0, -270.0)",0,349.71300000324845,349.6961999917403,True,False
18,2,255.14955949992873,circle,"(-480.0, -270.0)",0,366.72169994562864,366.7048999341205,True,False
18,2,255.1667443999322,circle,"(-480.0, -270.0)",0,383.906599949114,383.88979993760586,True,False
18,2,255.1834349000128,circle,"(-480.0, -270.0)",0,400.5971000296995,400.58030001819134,True,False
18,2,255.2001456998987,circle,"(-480.0, -270.0)",0,417.30789991561323,417.29109990410507,True,False
18,2,255.21675809996668,circle,"(-480.0, -270.0)",0,433.9202999835834,433.9034999720752,True,False
18,2,255.23340049991384,circle,"(-480.0, -270.0)",0,450.5626999307424,450.5458999192342,True,False
18,2,255.25033029995393,circle,"(-480.0, -270.0)",0,467.492499970831,467.4756999593228,True,False
18,2,255.26580829999875,circle,"(-480.0, -270.0)",0,482.97050001565367,482.9537000041455,True,False
18,2,255.28252849995624,circle,"(-480.0, -270.0)",0,499.69069997314364,499.67389996163547,True,False
18,2,255.29952439991757,circle,"(-480.0, -270.0)",0,516.6865999344736,516.6697999229655,True,False
18,2,255.3161409999011,circle,"(-480.0, -270.0)",0,533.3031999180093,533.2863999065012,True,False
18,2,255.33253459993284,circle,"(-480.0, -270.0)",0,549.6967999497429,549.6799999382347,True,False
18,2,255.34942059998866,circle,"(-480.0, -270.0)",0,566.5828000055626,566.5659999940544,True,False
18,2,255.36587839992717,circle,"(-480.0, -270.0)",0,583.04059994407,583.0237999325618,True,False
18,2,255.38259269995615,circle,"(-480.0, -270.0)",0,599.7548999730498,599.7380999615416,True,False
18,2,255.3998485999182,circle,"(-480.0, -270.0)",0,617.0107999350876,616.9939999235794,True,False
18,2,255.41692339989822,circle,"(-480.0, -270.0)",0,634.0855999151245,634.0687999036163,True,False
18,2,255.4334930999903,circle,"(-480.0, -270.0)",0,650.6553000072017,650.6384999956936,True,False
18,2,255.45003770000767,circle,"(-480.0, -270.0)",0,667.1999000245705,667.1831000130624,True,False
18,2,255.4666286999127,circle,"(-480.0, -270.0)",0,683.7908999295905,683.7740999180824,True,False
18,2,255.48342319997028,circle,"(-480.0, -270.0)",0,700.5853999871761,700.5685999756679,True,False
18,2,255.500195599976,circle,"(-480.0, -270.0)",0,717.3577999928966,717.3409999813884,True,False
18,2,255.51667399995495,circle,"(-480.0, -270.0)",0,733.8361999718472,733.8193999603391,True,False
18,2,255.5331275999779,circle,"(-480.0, -270.0)",0,750.2897999947891,750.2729999832809,True,False
18,2,255.54885079991072,circle,"(-480.0, -270.0)",0,766.0129999276251,765.9961999161169,True,False
18,2,255.56599649996497,circle,"(-480.0, -270.0)",0,783.1586999818683,783.1418999703601,True,False
18,2,255.5825620999094,circle,"(-480.0, -270.0)",0,799.7242999263108,799.7074999148026,True,False
18,2,255.5992181999609,circle,"(-480.0, -270.0)",0,816.3803999777883,816.3635999662802,True,False
18,2,255.6160724000074,circle,"(-480.0, -270.0)",0,833.2346000242978,833.2178000127897,True,False
18,2,255.63249859993812,circle,"(-480.0, -270.0)",0,849.6607999550179,849.6439999435097,True,False
18,2,255.6498384999577,circle,"(-480.0, -270.0)",0,867.0006999745965,866.9838999630883,True,False
18,2,255.66636419994757,circle,"(-480.0, -270.0)",0,883.5263999644667,883.5095999529585,True,False
18,2,255.68378459999803,circle,"(-480.0, -270.0)",0,900.9468000149354,900.9300000034273,True,False
18,2,255.7000442999415,circle,"(-480.0, -270.0)",0,917.2064999584109,917.1896999469027,True,False
18,2,255.71660789998714,circle,"(-480.0, -270.0)",0,933.7701000040397,933.7532999925315,True,False
18,2,255.7332432999974,circle,"(-480.0, -270.0)",0,950.4055000143126,950.3887000028044,True,False
18,2,255.74904649995733,circle,"(-480.0, -270.0)",0,966.2086999742314,966.1918999627233,True,False
18,2,255.7660334999673,circle,"(-480.0, -270.0)",0,983.1956999842077,983.1788999726996,True,False
18,2,255.7824235999724,circle,"(-480.0, -270.0)",0,999.5857999892905,999.5689999777824,True,False
18,2,255.79960519995075,circle,"(-480.0, -270.0)",0,1016.7673999676481,1016.7505999561399,True,False
18,2,255.8158724999521,circle,"(-480.0, -270.0)",0,1033.0346999689937,1033.0178999574855,True,False
18,2,255.8326738999458,circle,"(-480.0, -270.0)",0,1049.8360999627039,1049.8192999511957,True,False
18,2,255.84988369990606,circle,"(-480.0, -270.0)",0,1067.0458999229595,1067.0290999114513,True,False
18,2,255.86630629992578,circle,"(-480.0, -270.0)",0,1083.4684999426827,1083.4516999311745,True,False
18,2,255.88306129991543,circle,"(-480.0, -270.0)",0,1100.2234999323264,1100.2066999208182,True,False
18,2,255.89974449994043,circle,"(-480.0, -270.0)",0,1116.906699957326,1116.889899945818,True,False
18,2,255.91653039993253,circle,"(-480.0, -270.0)",0,1133.692599949427,1133.6757999379188,True,False
18,2,255.93322859995533,circle,"(-480.0, -270.0)",0,1150.3907999722287,1150.3739999607205,True,False
18,2,255.94986880000215,circle,"(-480.0, -270.0)",0,1167.0310000190511,1167.014200007543,True,False
18,2,255.96643949998543,circle,"(-480.0, -270.0)",0,1183.6017000023276,1183.5848999908194,True,False
18,2,255.9821108999895,circle,"(-480.0, -270.0)",0,1199.273100006394,1199.256299994886,True,False
18,2,255.99876029998995,circle,"(-480.0, -270.0)",0,1215.9225000068545,1215.9056999953464,True,False
18,2,256.01591819990426,circle,"(-480.0, -270.0)",0,1233.080399921164,1233.0635999096557,True,False
18,2,256.0327622999903,circle,"(-480.0, -270.0)",0,1249.9245000071824,1249.9076999956742,True,False
18,2,256.049911399954,circle,"(-480.0, -270.0)",0,1267.0735999708995,1267.0567999593914,True,False
18,2,256.06576419994235,circle,"(-480.0, -270.0)",0,1282.9263999592513,1282.9095999477431,True,False
18,2,256.0825579999946,circle,"(-480.0, -270.0)",0,1299.7202000115067,1299.7033999999985,True,False
18,2,256.09983839991037,circle,"(-480.0, -270.0)",0,1317.000599927269,1316.9837999157608,True,False
18,2,256.11651229998097,circle,"(-480.0, -270.0)",0,1333.6744999978691,1333.657699986361,True,False
18,2,256.1330280000111,circle,"(-480.0, -270.0)",0,1350.1902000280097,1350.1734000165015,True,False
18,2,256.1496563999681,circle,"(-480.0, -270.0)",0,1366.8185999849811,1366.801799973473,True,False
18,2,256.16656219994184,circle,"(-480.0, -270.0)",0,1383.7243999587372,1383.707599947229,True,False
18,2,256.1829906000057,circle,"(-480.0, -270.0)",0,1400.1528000226244,1400.1360000111163,True,False
18,2,256.1996077999938,circle,"(-480.0, -270.0)",0,1416.7700000107288,1416.7531999992207,True,False
18,2,256.21630540001206,circle,"(-480.0, -270.0)",0,1433.467600028962,1433.4508000174537,True,False
18,2,256.2319000000134,circle,"(-480.0, -270.0)",0,1449.062200030312,1449.0454000188038,True,False
18,2,256.2492205000017,circle,"(-480.0, -270.0)",0,1466.3827000185847,1466.3659000070766,True,False
18,2,256.26589099993,circle,"(-480.0, -270.0)",0,1483.0531999468803,1483.0363999353722,True,False
18,2,256.2822853999678,circle,"(-480.0, -270.0)",0,1499.4475999847054,1499.4307999731973,True,False
18,2,256.2991454999428,circle,"(-480.0, -270.0)",0,1516.3076999597251,1516.290899948217,True,False
18,2,256.3156631999882,circle,"(-480.0, -270.0)",0,1532.8254000050947,1532.8085999935865,True,False
18,2,256.3330164999934,circle,"(-480.0, -270.0)",0,1550.1787000102922,1550.161899998784,True,False
18,2,256.3500631999923,circle,"(-480.0, -270.0)",0,1567.2254000091925,1567.2085999976844,True,False
18,2,256.3663954999065,circle,"(-480.0, -270.0)",0,1583.5576999234036,1583.5408999118954,True,False
18,2,256.3830286999,circle,"(-480.0, -270.0)",0,1600.1908999169245,1600.1740999054164,True,False
18,2,256.399800999905,circle,"(-480.0, -270.0)",0,1616.9631999218836,1616.9463999103755,True,False
18,2,256.41528119996656,circle,"(-480.0, -270.0)",0,1632.4433999834582,1632.42659997195,True,False
18,2,256.4320068999659,circle,"(-480.0, -270.0)",0,1649.169099982828,1649.1522999713197,True,False
18,2,256.44849340000656,circle,"(-480.0, -270.0)",0,1665.655600023456,1665.6388000119478,True,False
18,2,256.4658729999792,circle,"(-480.0, -270.0)",0,1683.035199996084,1683.0183999845758,True,False
18,2,256.48215499997605,circle,"(-480.0, -270.0)",0,1699.3171999929473,1699.300399981439,True,False
18,2,256.4985616999911,circle,"(-480.0, -270.0)",0,1715.7239000080153,1715.7070999965072,True,False
18,2,256.51520879997406,circle,"(-480.0, -270.0)",0,1732.3709999909624,1732.3541999794543,True,False
18,2,256.5320604000008,circle,"(-480.0, -270.0)",0,1749.2226000176743,1749.205800006166,True,False
18,2,256.5487009999342,circle,"(-480.0, -270.0)",0,1765.8631999511272,1765.846399939619,True,False
18,2,256.5653309999034,circle,"(-480.0, -270.0)",0,1782.4931999202818,1782.4763999087736,True,False
18,2,256.58290689997375,circle,"(-480.0, -270.0)",0,1800.069099990651,1800.0522999791428,True,False
19,1,268.7448592999717,circle,"(-480.0, -270.0)",0,0.018900027498602867,0.018900027498602867,False,True
19,2,269.52863209997304,circle,"(-480.0, -270.0)",266.68560004327446,783.7917000288144,783.7728000013158,True,False
19,2,269.54776639991906,circle,"(-480.0, -270.0)",0,802.9259999748319,802.9070999473333,True,False
19,2,269.56120359990746,circle,"(-480.0, -270.0)",0,816.3631999632344,816.3442999357358,True,False
19,2,269.5777720999904,circle,"(-480.0, -270.0)",0,832.9317000461742,832.9128000186756,True,False
19,2,269.5945146000013,circle,"(-480.0, -270.0)",0,849.6742000570521,849.6553000295535,True,False
19,2,269.6115834999364,circle,"(-480.0, -270.0)",0,866.7430999921635,866.7241999646649,True,False
19,2,269.6279981000116,circle,"(-480.0, -270.0)",0,883.157700067386,883.1388000398874,True,False
19,2,269.6445537999971,circle,"(-480.0, -270.0)",0,899.7134000528604,899.6945000253618,True,False
19,2,269.66202849999536,circle,"(-480.0, -270.0)",0,917.1881000511348,917.1692000236362,True,False
19,2,269.6788243999472,circle,"(-480.0, -270.0)",0,933.9840000029653,933.9650999754667,True,False
19,2,269.6952572999289,circle,"(-480.0, -270.0)",0,950.4168999847025,950.3979999572039,True,False
19,2,269.7120168999536,circle,"(-480.0, -270.0)",0,967.1765000093728,967.1575999818742,True,False
19,2,269.7288911999203,circle,"(-480.0, -270.0)",0,984.050799976103,984.0318999486044,True,False
19,2,269.74569469993,circle,"(-480.0, -270.0)",0,1000.8542999858037,1000.8353999583051,True,False
19,2,269.7623849000083,circle,"(-480.0, -270.0)",0,1017.5445000641048,1017.5256000366062,True,False
19,2,269.7787987999618,circle,"(-480.0, -270.0)",0,1033.9584000175819,1033.9394999900833,True,False
19,2,269.7946219999576,circle,"(-480.0, -270.0)",0,1049.7816000133753,1049.7626999858767,True,False
19,2,269.81152779993135,circle,"(-480.0, -270.0)",0,1066.6873999871314,1066.6684999596328,True,False
19,2,269.8279068999691,circle,"(-480.0, -270.0)",0,1083.06650002487,1083.0475999973714,True,False
19,2,269.84497669991106,circle,"(-480.0, -270.0)",0,1100.1362999668345,1100.1173999393359,True,False
19,2,269.86141149990726,circle,"(-480.0, -270.0)",0,1116.5710999630392,1116.5521999355406,True,False
19,2,269.8781305999728,circle,"(-480.0, -270.0)",0,1133.2902000285685,1133.27130000107,True,False
19,2,269.89551790000405,circle,"(-480.0, -270.0)",0,1150.6775000598282,1150.6586000323296,True,False
19,2,269.91240129992366,circle,"(-480.0, -270.0)",0,1167.560899979435,1167.5419999519363,True,False
19,2,269.9291143999435,circle,"(-480.0, -270.0)",0,1184.2739999992773,1184.2550999717787,True,False
19,2,269.94573539996054,circle,"(-480.0, -270.0)",0,1200.8950000163168,1200.8760999888182,True,False
19,2,269.9623873999808,circle,"(-480.0, -270.0)",0,1217.547000036575,1217.5281000090763,True,False
19,2,269.9785026999889,circle,"(-480.0, -270.0)",0,1233.6623000446707,1233.643400017172,True,False
19,2,269.99577609996777,circle,"(-480.0, -270.0)",0,1250.9357000235468,1250.9167999960482,True,False
19,2,270.0124578999821,circle,"(-480.0, -270.0)",0,1267.6175000378862,1267.5986000103876,True,False
19,2,270.027556899935,circle,"(-480.0, -270.0)",0,1282.7164999907836,1282.697599963285,True,False
19,2,270.04419729998335,circle,"(-480.0, -270.0)",0,1299.356900039129,1299.3380000116304,True,False
19,2,270.06229989998974,circle,"(-480.0, -270.0)",0,1317.4595000455156,1317.440600018017,True,False
19,2,270.0777917999076,circle,"(-480.0, -270.0)",0,1332.951399963349,1332.9324999358505,True,False
19,2,270.09435029991437,circle,"(-480.0, -270.0)",0,1349.509899970144,1349.4909999426454,True,False
19,2,270.11085499997716,circle,"(-480.0, -270.0)",0,1366.0146000329405,1365.995700005442,True,False
19,2,270.1282731000101,circle,"(-480.0, -270.0)",0,1383.432700065896,1383.4138000383973,True,False
19,2,270.1445472999476,circle,"(-480.0, -270.0)",0,1399.7069000033662,1399.6879999758676,True,False
19,2,270.16242229996715,circle,"(-480.0, -270.0)",0,1417.581900022924,1417.5629999954253,True,False
19,2,270.17884680000134,circle,"(-480.0, -270.0)",0,1434.0064000571147,1433.987500029616,True,False
19,2,270.1954743999522,circle,"(-480.0, -270.0)",0,1450.6340000079945,1450.6150999804959,True,False
19,2,270.21206699998584,circle,"(-480.0, -270.0)",0,1467.226600041613,1467.2077000141144,True,False
19,2,270.2286269000033,circle,"(-480.0, -270.0)",0,1483.7865000590682,1483.7676000315696,True,False
19,2,270.24570779991336,circle,"(-480.0, -270.0)",0,1500.8673999691382,1500.8484999416396,True,False
19,2,270.2612517999951,circle,"(-480.0, -270.0)",0,1516.4114000508562,1516.3925000233576,True,False
19,2,270.2791125999065,circle,"(-480.0, -270.0)",0,1534.2721999622881,1534.2532999347895,True,False
19,2,270.29950869991444,circle,"(-480.0, -270.0)",0,1554.668299970217,1554.6493999427184,True,False
19,2,270.31228770001326,circle,"(-480.0, -270.0)",0,1567.447300069034,1567.4284000415355,True,False
19,2,270.32764829997905,circle,"(-480.0, -270.0)",0,1582.8079000348225,1582.789000007324,True,False
19,2,270.3450083999196,circle,"(-480.0, -270.0)",0,1600.1679999753833,1600.1490999478847,True,False
19,2,270.36239649995696,circle,"(-480.0, -270.0)",0,1617.5561000127345,1617.537199985236,True,False
19,2,270.3788235000102,circle,"(-480.0, -270.0)",0,1633.9831000659615,1633.9642000384629,True,False
19,2,270.3953793999972,circle,"(-480.0, -270.0)",0,1650.5390000529587,1650.5201000254601,True,False
19,2,270.41219439997803,circle,"(-480.0, -270.0)",0,1667.3540000338107,1667.3351000063121,True,False
19,2,270.42879159993026,circle,"(-480.0, -270.0)",0,1683.9511999860406,1683.932299958542,True,False
19,2,270.44515169993974,circle,"(-480.0, -270.0)",0,1700.3112999955192,1700.2923999680206,True,False
19,2,270.46166699996684,circle,"(-480.0, -270.0)",0,1716.826600022614,1716.8076999951154,True,False
19,2,270.4773900998989,circle,"(-480.0, -270.0)",0,1732.5496999546885,1732.53079992719,True,False
19,2,270.4940845000092,circle,"(-480.0, -270.0)",0,1749.2441000649706,1749.225200037472,True,False
19,2,270.5110843000002,circle,"(-480.0, -270.0)",0,1766.243900055997,1766.2250000284985,True,False
19,2,271.6276795999147,star,"(-480.0, 270.0)",250.0249999575317,2882.8391999704763,2882.8202999429777,False,True
19,3,271.8947917999467,star,"(-480.0, 270.0)",263.94790003541857,3149.9514000024647,267.1122000319883,True,False
19,3,271.9156916999491,star,"(-480.0, 270.0)",0,3170.8513000048697,288.01210003439337,True,False
19,3,271.9297974999063,star,"(-480.0, 270.0)",0,3184.9570999620482,302.1178999915719,True,False
19,3,271.94413719989825,star,"(-480.0, 270.0)",0,3199.296799954027,316.4575999835506,True,False
19,3,271.96083699993324,star,"(-480.0, 270.0)",0,3215.996599989012,333.15740001853555,True,False
19,3,271.9772777999751,star,"(-480.0, 270.0)",0,3232.4374000309035,349.5982000604272,True,False
19,3,271.99473869998474,star,"(-480.0, 270.0)",0,3249.8983000405133,367.05910007003695,True,False
19,3,272.0115683999611,star,"(-480.0, 270.0)",0,3266.728000016883,383.8888000464067,True,False
19,3,272.02821549994405,star,"(-480.0, 270.0)",0,3283.37509999983,400.5359000293538,True,False
19,3,272.04471990000457,star,"(-480.0, 270.0)",0,3299.8795000603423,417.0403000898659,True,False
19,3,272.06143229990266,star,"(-480.0, 270.0)",0,3316.591899958439,433.75269998796284,True,False
19,3,272.0780599999707,star,"(-480.0, 270.0)",0,3333.2196000264958,450.3804000560194,True,False
19,3,272.0937437999528,star,"(-480.0, 270.0)",0,3348.9034000085667,466.06420003809035,True,False
19,3,272.11029019998387,star,"(-480.0, 270.0)",0,3365.4498000396416,482.61060006916523,True,False
19,3,272.12708080001175,star,"(-480.0, 270.0)",0,3382.2404000675306,499.40120009705424,True,False
19,3,272.1435984999407,star,"(-480.0, 270.0)",0,3398.758099996485,515.9189000260085,True,False
19,3,272.1603981999215,star,"(-480.0, 270.0)",0,3415.5577999772504,532.7186000067741,True,False
19,3,272.1770283000078,star,"(-480.0, 270.0)",0,3432.1879000635818,549.3487000931054,True,False
19,3,272.1938692999538,star,"(-480.0, 270.0)",0,3449.02890000958,566.1897000391036,True,False
19,3,272.21137119992636,star,"(-480.0, 270.0)",0,3466.530799982138,583.6916000116616,True,False
19,3,272.23403829999734,star,"(-480.0, 270.0)",0,3489.1979000531137,606.3587000826374,True,False
19,3,272.2466144999489,star,"(-480.0, 270.0)",0,3501.7741000046954,618.934900034219,True,False
19,3,272.26128629990853,star,"(-480.0, 270.0)",0,3516.4458999643102,633.6066999938339,True,False
19,3,272.2779235999333,star,"(-480.0, 270.0)",0,3533.0831999890506,650.2440000185743,True,False
19,3,272.29458489990793,star,"(-480.0, 270.0)",0,3549.744499963708,666.9052999932319,True,False
19,3,272.3112722999649,star,"(-480.0, 270.0)",0,3566.4319000206888,683.5927000502124,True,False
19,3,272.3279479999328,star,"(-480.0, 270.0)",0,3583.1075999885798,700.2684000181034,True,False
19,3,272.3445529999444,star,"(-480.0, 270.0)",0,3599.7126000002027,716.8734000297263,True,False
19,3,272.3601932999445,star,"(-480.0, 270.0)",0,3615.352900000289,732.5137000298128,True,False
19,3,272.37704609998036,star,"(-480.0, 270.0)",0,3632.2057000361383,749.366500065662,True,False
19,3,272.39395669999067,star,"(-480.0, 270.0)",0,3649.116300046444,766.2771000759676,True,False
19,3,272.41039049997926,star,"(-480.0, 270.0)",0,3665.550100035034,782.7109000645578,True,False
19,3,272.4268681999529,star,"(-480.0, 270.0)",0,3682.0278000086546,799.1886000381783,True,False
19,3,272.4440022999188,star,"(-480.0, 270.0)",0,3699.1618999745697,816.3227000040933,True,False
19,3,272.4605219999794,star,"(-480.0, 270.0)",0,3715.6816000351682,832.8424000646919,True,False
19,3,272.4772793999873,star,"(-480.0, 270.0)",0,3732.4390000430867,849.5998000726104,True,False
19,3,272.4947314999299,star,"(-480.0, 270.0)",0,3749.891099985689,867.0519000152126,True,False
19,3,272.5113212999422,star,"(-480.0, 270.0)",0,3766.480899997987,883.6417000275105,True,False
19,3,272.53143490001094,star,"(-480.0, 270.0)",0,3786.5945000667125,903.7553000962362,True,False
19,3,272.5444943999173,star,"(-480.0, 270.0)",0,3799.6539999730885,916.8148000026122,True,False
19,3,272.5612034999067,star,"(-480.0, 270.0)",0,3816.363099962473,933.5238999919966,True,False
19,3,272.57755669998005,star,"(-480.0, 270.0)",0,3832.716300035827,949.8771000653505,True,False
19,3,272.59444139990956,star,"(-480.0, 270.0)",0,3849.6009999653324,966.7617999948561,True,False
19,3,272.60989799990784,star,"(-480.0, 270.0)",0,3865.0575999636203,982.218399993144,True,False
19,3,272.62698429997545,star,"(-480.0, 270.0)",0,3882.143900031224,999.3047000607476,True,False
19,3,272.643890599953,star,"(-480.0, 270.0)",0,3899.050200008787,1016.2110000383109,True,False
19,3,272.66025749989785,star,"(-480.0, 270.0)",0,3915.417099953629,1032.5778999831527,True,False
19,3,272.67720799997915,star,"(-480.0, 270.0)",0,3932.3676000349224,1049.528400064446,True,False
19,3,272.69372380001005,star,"(-480.0, 270.0)",0,3948.8834000658244,1066.044200095348,True,False
19,3,272.71068169991486,star,"(-480.0, 270.0)",0,3965.8412999706343,1083.002100000158,True,False
19,3,272.72676079999655,star,"(-480.0, 270.0)",0,3981.9204000523314,1099.081200081855,True,False
19,3,272.74427419994026,star,"(-480.0, 270.0)",0,3999.4337999960408,1116.5946000255644,True,False
19,3,272.7607205999084,star,"(-480.0, 270.0)",0,4015.8801999641582,1133.040999993682,True,False
19,3,272.7773997999029,star,"(-480.0, 270.0)",0,4032.5593999587,1149.7201999882236,True,False
19,3,272.79409769992344,star,"(-480.0, 270.0)",0,4049.2572999792174,1166.418100008741,True,False
19,3,272.8107323999284,star,"(-480.0, 270.0)",0,4065.89199998416,1183.0528000136837,True,False
19,3,272.82740559999365,star,"(-480.0, 270.0)",0,4082.56520004943,1199.7260000789538,True,False
19,3,272.8443132999819,star,"(-480.0, 270.0)",0,4099.472900037654,1216.6337000671774,True,False
19,3,272.8610956999473,star,"(-480.0, 270.0)",0,4116.255300003104,1233.4161000326276,True,False
19,3,272.8768767999718,star,"(-480.0, 270.0)",0,4132.036400027573,1249.1972000570968,True,False
19,3,272.8936668999959,star,"(-480.0, 270.0)",0,4148.826500051655,1265.9873000811785,True,False
19,3,272.9101051999023,star,"(-480.0, 270.0)",0,4165.264799958095,1282.4255999876186,True,False
19,3,272.92738109990023,star,"(-480.0, 270.0)",0,4182.540699956007,1299.701499985531,True,False
19,3,272.94400369992945,star,"(-480.0, 270.0)",0,4199.16329998523,1316.3241000147536,True,False
19,3,272.96029109996744,star,"(-480.0, 270.0)",0,4215.4507000232115,1332.6115000527352,True,False
19,3,272.976703699911,star,"(-480.0, 270.0)",0,4231.86329996679,1349.0240999963135,True,False
19,3,272.9944182999898,star,"(-480.0, 270.0)",0,4249.577900045551,1366.738700075075,True,False
19,3,273.0110817999812,star,"(-480.0, 270.0)",0,4266.241400036961,1383.4022000664845,True,False
19,3,273.02800879999995,star,"(-480.0, 270.0)",0,4283.168400055729,1400.3292000852525,True,False
19,3,273.04436159995385,star,"(-480.0, 270.0)",0,4299.521200009622,1416.6820000391454,True,False
19,3,273.06119379994925,star,"(-480.0, 270.0)",0,4316.353400005028,1433.5142000345513,True,False
19,3,273.08318859990686,star,"(-480.0, 270.0)",0,4338.348199962638,1455.508999992162,True,False
19,3,273.0936052999459,star,"(-480.0, 270.0)",0,4348.764900001697,1465.925700031221,True,False
19,3,273.11003589991014,star,"(-480.0, 270.0)",0,4365.195499965921,1482.3562999954447,True,False
19,3,273.1279377999017,star,"(-480.0, 270.0)",0,4383.097399957478,1500.2581999870017,True,False
19,3,273.1435915000038,star,"(-480.0, 270.0)",0,4398.751100059599,1515.9119000891224,True,False
19,3,273.1603923999937,star,"(-480.0, 270.0)",0,4415.552000049502,1532.7128000790253,True,False
19,3,273.17693349998444,star,"(-480.0, 270.0)",0,4432.09310004022,1549.2539000697434,True,False
19,3,273.19413799990434,star,"(-480.0, 270.0)",0,4449.2975999601185,1566.4583999896422,True,False
19,3,273.2108301999979,star,"(-480.0, 270.0)",0,4465.989800053649,1583.1506000831723,True,False
19,3,273.22752509999555,star,"(-480.0, 270.0)",0,4482.684700051323,1599.8455000808463,True,False
19,3,273.2446142999688,star,"(-480.0, 270.0)",0,4499.773900024593,1616.9347000541165,True,False
19,3,273.261165099917,star,"(-480.0, 270.0)",0,4516.324699972756,1633.4855000022799,True,False
19,3,273.2777175999945,star,"(-480.0, 270.0)",0,4532.8772000502795,1650.0380000798032,True,False
19,3,273.29428549995646,star,"(-480.0, 270.0)",0,4549.445100012235,1666.605900041759,True,False
19,3,273.31131279992405,star,"(-480.0, 270.0)",0,4566.47239997983,1683.6332000093535,True,False
19,3,273.3267321999883,star,"(-480.0, 270.0)",0,4581.8918000441045,1699.0526000736281,True,False
19,3,273.3435587999411,star,"(-480.0, 270.0)",0,4598.718399996869,1715.879200026393,True,False
19,3,273.3604571999749,star,"(-480.0, 270.0)",0,4615.616800030693,1732.777600060217,True,False
19,3,273.3768850999186,star,"(-480.0, 270.0)",0,4632.044699974358,1749.2055000038818,True,False
19,3,273.39378749998286,star,"(-480.0, 270.0)",0,4648.94710003864,1766.1079000681639,True,False
19,3,273.41011729999445,star,"(-480.0, 270.0)",0,4665.27690005023,1782.437700079754,True,False
19,3,273.4276536999969,star,"(-480.0, 270.0)",0,4682.813300052658,1799.9741000821814,True,False
19,3,274.06036659993697,circle,"(-480.0, -270.0)",266.7076999787241,5315.526199992746,2432.68700002227,False,True
19,4,276.14410859998316,cross,"(480.0, -270.0)",251.1786000104621,7399.268200038932,2083.742000046186,False,True
20,1,280.2429729999276,circle,"(-480.0, -270.0)",0,0.0241999514400959,0.0241999514400959,False,True
20,2,281.008224899997,circle,"(-480.0, -270.0)",266.57279999926686,765.2761000208557,765.2519000694156,True,False
20,2,281.02682409994304,circle,"(-480.0, -270.0)",0,783.8752999668941,783.851100015454,True,False
20,2,281.04081809998024,circle,"(-480.0, -270.0)",0,797.8693000040948,797.8451000526547,True,False
20,2,281.05759539990686,circle,"(-480.0, -270.0)",0,814.6465999307111,814.622399979271,True,False
20,2,281.07531119999476,circle,"(-480.0, -270.0)",0,832.3624000186101,832.33820006717,True,False
20,2,281.09159719990566,circle,"(-480.0, -270.0)",0,848.648399929516,848.6241999780759,True,False
20,2,281.10823389992584,circle,"(-480.0, -270.0)",0,865.2850999496877,865.2608999982476,True,False
20,2,281.12495560001116,circle,"(-480.0, -270.0)",0,882.0068000350147,881.9826000835747,True,False
20,2,281.1413931999123,circle,"(-480.0, -270.0)",0,898.4443999361247,898.4201999846846,True,False
20,2,281.1580804999685,circle,"(-480.0, -270.0)",0,915.1316999923438,915.1075000409037,True,False
20,2,281.17498369992245,circle,"(-480.0, -270.0)",0,932.0348999463022,932.0106999948621,True,False
20,2,281.191744199954,circle,"(-480.0, -270.0)",0,948.7953999778256,948.7712000263855,True,False
20,2,281.2072806999786,circle,"(-480.0, -270.0)",0,964.3319000024348,964.3077000509948,True,False
20,2,281.2241730999667,circle,"(-480.0, -270.0)",0,981.224299990572,981.2001000391319,True,False
20,2,281.2405682000099,circle,"(-480.0, -270.0)",0,997.6194000337273,997.5952000822872,True,False
20,2,281.25730659998953,circle,"(-480.0, -270.0)",0,1014.3578000133857,1014.3336000619456,True,False
20,2,281.27406089997385,circle,"(-480.0, -270.0)",0,1031.1120999976993,1031.0879000462592,True,False
20,2,281.2908524000086,circle,"(-480.0, -270.0)",0,1047.9036000324413,1047.8794000810012,True,False
20,2,281.30742369999643,circle,"(-480.0, -270.0)",0,1064.4749000202864,1064.4507000688463,True,False
20,2,281.32479039998725,circle,"(-480.0, -270.0)",0,1081.8416000111029,1081.8174000596628,True,False
20,2,281.34154319996014,circle,"(-480.0, -270.0)",0,1098.5943999839947,1098.5702000325546,True,False
20,2,281.3583997999085,circle,"(-480.0, -270.0)",0,1115.4509999323636,1115.4267999809235,True,False
20,2,281.3748664999148,circle,"(-480.0, -270.0)",0,1131.91769993864,1131.8934999872,True,False
20,2,281.39131259999704,circle,"(-480.0, -270.0)",0,1148.3638000208884,1148.3396000694484,True,False
20,2,281.408297099988,circle,"(-480.0, -270.0)",0,1165.3483000118285,1165.3241000603884,True,False
20,2,281.42489209992345,circle,"(-480.0, -270.0)",0,1181.9432999473065,1181.9190999958664,True,False
20,2,281.4406059999019,circle,"(-480.0, -270.0)",0,1197.657199925743,1197.632999974303,True,False
20,2,281.45754259999376,circle,"(-480.0, -270.0)",0,1214.5938000176102,1214.56960006617,True,False
20,2,281.4741244999459,circle,"(-480.0, -270.0)",0,1231.1756999697536,1231.1515000183135,True,False
20,2,281.4908112999983,circle,"(-480.0, -270.0)",0,1247.8625000221655,1247.8383000707254,True,False
20,2,281.50719139992725,circle,"(-480.0, -270.0)",0,1264.2425999511033,1264.2183999996632,True,False
20,2,281.5238718999317,circle,"(-480.0, -270.0)",0,1280.9230999555439,1280.8989000041038,True,False
20,2,281.5407777999062,circle,"(-480.0, -270.0)",0,1297.8289999300614,1297.8047999786213,True,False
20,2,281.55748879991006,circle,"(-480.0, -270.0)",0,1314.5399999339134,1314.5157999824733,True,False
20,2,281.57705429999623,circle,"(-480.0, -270.0)",0,1334.1055000200868,1334.0813000686467,True,False
20,2,281.59059859998524,circle,"(-480.0, -270.0)",0,1347.6498000090942,1347.625600057654,True,False
20,2,281.608131099958,circle,"(-480.0, -270.0)",0,1365.182299981825,1365.158100030385,True,False
20,2,281.62504849990364,circle,"(-480.0, -270.0)",0,1382.099699927494,1382.0754999760538,True,False
20,2,281.641509899986,circle,"(-480.0, -270.0)",0,1398.5611000098288,1398.5369000583887,True,False
20,2,281.6586062000133,circle,"(-480.0, -270.0)",0,1415.657400037162,1415.633200085722,True,False
20,2,281.67481919995043,circle,"(-480.0, -270.0)",0,1431.8703999742866,1431.8462000228465,True,False
20,2,281.6914948999183,circle,"(-480.0, -270.0)",0,1448.5460999421775,1448.5218999907374,True,False
20,2,281.7082018000074,circle,"(-480.0, -270.0)",0,1465.2530000312254,1465.2288000797853,True,False
20,2,281.7241125999717,circle,"(-480.0, -270.0)",0,1481.1637999955565,1481.1396000441164,True,False
20,2,281.74084250000305,circle,"(-480.0, -270.0)",0,1497.893700026907,1497.869500075467,True,False
20,2,281.75731329992414,circle,"(-480.0, -270.0)",0,1514.3644999479875,1514.3402999965474,True,False
20,2,281.7741171999369,circle,"(-480.0, -270.0)",0,1531.168399960734,1531.1442000092939,True,False
20,2,281.7907816999359,circle,"(-480.0, -270.0)",0,1547.832899959758,1547.8087000083178,True,False
20,2,281.80729659995995,circle,"(-480.0, -270.0)",0,1564.347799983807,1564.3236000323668,True,False
20,2,281.82420719997026,circle,"(-480.0, -270.0)",0,1581.2583999941126,1581.2342000426725,True,False
20,2,281.84160709998105,circle,"(-480.0, -270.0)",0,1598.6583000048995,1598.6341000534594,True,False
20,2,281.8582083999645,circle,"(-480.0, -270.0)",0,1615.2595999883488,1615.2354000369087,True,False
20,2,281.875010299962,circle,"(-480.0, -270.0)",0,1632.0614999858662,1632.0373000344262,True,False
20,2,281.891341199982,circle,"(-480.0, -270.0)",0,1648.3924000058323,1648.3682000543922,True,False
20,2,281.90786019992083,circle,"(-480.0, -270.0)",0,1664.9113999446854,1664.8871999932453,True,False
20,2,281.9246803999413,circle,"(-480.0, -270.0)",0,1681.7315999651328,1681.7074000136927,True,False
20,2,281.9414716999745,circle,"(-480.0, -270.0)",0,1698.522899998352,1698.4987000469118,True,False
20,2,281.958037699922,circle,"(-480.0, -270.0)",0,1715.0888999458402,1715.0646999944001,True,False
20,2,281.9737684999127,circle,"(-480.0, -270.0)",0,1730.8196999365464,1730.7954999851063,True,False
20,2,281.990552800009,circle,"(-480.0, -270.0)",0,1747.6040000328794,1747.5798000814393,True,False
20,2,282.0125219000038,circle,"(-480.0, -270.0)",0,1769.5731000276282,1769.5489000761881,True,False
20,2,282.024374099914,circle,"(-480.0, -270.0)",0,1781.4252999378368,1781.4010999863967,True,False
20,2,282.04071769991424,circle,"(-480.0, -270.0)",0,1797.7688999380916,1797.7446999866515,True,False
21,1,287.5553831999423,circle,"(-480.0, -270.0)",0,0.01750001683831215,0.01750001683831215,False,True
