trial_num,selection_num,timestamp,shape,position,fixation_duration_ms,rt_from_trial_start_ms,rt_from_previous_selection_ms,queued_selection,was_executed
13,1,721.7655632999958,circle,"(-480.0, -270.0)",0,0.0137000170070678,0.0137000170070678,False,True
13,2,722.029313099978,circle,"(-480.0, -270.0)",259.25350000034086,263.763499999186,263.74979998217896,True,False
13,2,722.0483082999999,circle,"(-480.0, -270.0)",0,282.75870002107695,282.7450000040699,True,False
13,2,722.0617915999901,circle,"(-480.0, -270.0)",0,296.24200001126155,296.2282999942545,True,False
13,2,722.0783472000039,circle,"(-480.0, -270.0)",0,312.7976000250783,312.7839000080712,True,False
13,2,722.0954735999985,circle,"(-480.0, -270.0)",0,329.92400001967326,329.9103000026662,True,False
13,2,722.1133715999895,circle,"(-480.0, -270.0)",0,347.82200001063757,347.8082999936305,True,False
13,2,722.1292741999787,circle,"(-480.0, -270.0)",0,363.7245999998413,363.71089998283423,True,False
13,2,722.1443033999822,circle,"(-480.0, -270.0)",0,378.7538000033237,378.74009998631664,True,False
13,2,722.1627003999893,circle,"(-480.0, -270.0)",0,397.15080001042224,397.1370999934152,True,False
13,2,722.1785590999934,circle,"(-480.0, -270.0)",0,413.0095000145957,412.9957999975886,True,False
13,2,722.196309299994,circle,"(-480.0, -270.0)",0,430.75970001518726,430.7459999981802,True,False
13,2,722.2119913999923,circle,"(-480.0, -270.0)",0,446.4418000134174,446.4280999964103,True,False
13,2,722.2288836999796,circle,"(-480.0, -270.0)",0,463.3341000007931,463.32039998378605,True,False
13,2,722.2452919999778,circle,"(-480.0, -270.0)",0,479.7423999989405,479.72869998193346,True,False
13,2,722.2631722999795,circle,"(-480.0, -270.0)",0,497.62270000064746,497.6089999836404,True,False
13,2,722.278579899983,circle,"(-480.0, -270.0)",0,513.0303000041749,513.0165999871679,True,False
13,2,722.2963809999928,circle,"(-480.0, -270.0)",0,530.8314000139944,530.8176999969874,True,False
13,2,722.3120538999792,circle,"(-480.0, -270.0)",0,546.5043000003789,546.4905999833718,True,False
13,2,722.3301557999803,circle,"(-480.0, -270.0)",0,564.6062000014354,564.5924999844283,True,False
13,2,722.3450502999767,circle,"(-480.0, -270.0)",0,579.5006999978796,579.4869999808725,True,False
13,2,722.3626937999798,circle,"(-480.0, -270.0)",0,597.144200000912,597.1304999839049,True,False
13,2,722.3775747999898,circle,"(-480.0, -270.0)",0,612.0252000109758,612.0114999939688,True,False
13,2,722.3963155999954,circle,"(-480.0, -270.0)",0,630.7660000165924,630.7522999995854,True,False
13,2,722.4119000999781,circle,"(-480.0, -270.0)",0,646.3504999992438,646.3367999822367,True,False
13,2,722.4273673999996,circle,"(-480.0, -270.0)",0,661.817800020799,661.804100003792,True,False
13,2,722.4461736999801,circle,"(-480.0, -270.0)",0,680.624100001296,680.610399984289,True,False
13,2,722.4621007999813,circle,"(-480.0, -270.0)",0,696.5512000024319,696.5374999854248,True,False
13,2,722.4796551000036,circle,"(-480.0, -270.0)",0,714.1055000247434,714.0918000077363,True,False
13,2,722.494074599992,circle,"(-480.0, -270.0)",0,728.5250000131782,728.5112999961711,True,False
13,2,722.5126041999902,circle,"(-480.0, -270.0)",0,747.0546000113245,747.0408999943174,True,False
13,2,722.5287686999945,circle,"(-480.0, -270.0)",0,763.2191000157036,763.2053999986965,True,False
13,2,722.5440137999831,circle,"(-480.0, -270.0)",0,778.4642000042368,778.4504999872297,True,False
13,2,722.5624498999969,circle,"(-480.0, -270.0)",0,796.9003000180237,796.8866000010166,True,False
13,2,722.5769750999752,circle,"(-480.0, -270.0)",0,811.4254999964032,811.4117999793962,True,False
13,2,722.5958941999997,circle,"(-480.0, -270.0)",0,830.3446000209078,830.3309000039008,True,False
13,2,722.6140091999841,circle,"(-480.0, -270.0)",0,848.4596000052989,848.4458999882918,True,False
13,2,722.627178099996,circle,"(-480.0, -270.0)",0,861.6285000171047,861.6148000000976,True,False
13,2,722.6459340000001,circle,"(-480.0, -270.0)",0,880.3844000212848,880.3707000042778,True,False
13,2,722.6618223999976,circle,"(-480.0, -270.0)",0,896.2728000187781,896.259100001771,True,False
13,2,722.6792719999794,circle,"(-480.0, -270.0)",0,913.7224000005517,913.7086999835446,True,False
13,2,722.694107599993,circle,"(-480.0, -270.0)",0,928.5580000141636,928.5442999971565,True,False
13,2,722.7135225999809,circle,"(-480.0, -270.0)",0,947.9730000020936,947.9592999850865,True,False
13,2,722.7288874999795,circle,"(-480.0, -270.0)",0,963.3379000006244,963.3241999836173,True,False
13,2,722.7440084999835,circle,"(-480.0, -270.0)",0,978.4589000046253,978.4451999876183,True,False
13,2,722.7625410000037,circle,"(-480.0, -270.0)",0,996.9914000248536,996.9777000078466,True,False
13,2,722.7784856999933,circle,"(-480.0, -270.0)",0,1012.9361000144854,1012.9223999974784,True,False
13,2,722.7938444000029,circle,"(-480.0, -270.0)",0,1028.294800024014,1028.281100007007,True,False
13,2,722.8125165999809,circle,"(-480.0, -270.0)",0,1046.9670000020415,1046.9532999850344,True,False
13,2,722.8286184000026,circle,"(-480.0, -270.0)",0,1063.068800023757,1063.0551000067499,True,False
13,2,722.8459036999848,circle,"(-480.0, -270.0)",0,1080.354100005934,1080.340399988927,True,False
13,2,722.8619041999918,circle,"(-480.0, -270.0)",0,1096.354600013001,1096.3408999959938,True,False
13,2,722.879351999989,circle,"(-480.0, -270.0)",0,1113.8024000101723,1113.7886999931652,True,False
13,2,722.8949699999939,circle,"(-480.0, -270.0)",0,1129.4204000150785,1129.4066999980714,True,False
13,2,722.9124580999778,circle,"(-480.0, -270.0)",0,1146.9084999989718,1146.8947999819648,True,False
13,2,722.927277299983,circle,"(-480.0, -270.0)",0,1161.7277000041213,1161.7139999871142,True,False
13,2,722.9460420999967,circle,"(-480.0, -270.0)",0,1180.4925000178628,1180.4788000008557,True,False
13,2,722.961637499975,circle,"(-480.0, -270.0)",0,1196.0878999962006,1196.0741999791935,True,False
13,2,722.9773234000022,circle,"(-480.0, -270.0)",0,1211.7738000233658,1211.7601000063587,True,False
13,2,722.9954827000038,circle,"(-480.0, -270.0)",0,1229.9331000249367,1229.9194000079297,True,False
13,2,723.0119068999775,circle,"(-480.0, -270.0)",0,1246.3572999986354,1246.3435999816284,True,False
13,2,723.027342299989,circle,"(-480.0, -270.0)",0,1261.792700010119,1261.778999993112,True,False
13,2,723.0457357999985,circle,"(-480.0, -270.0)",0,1280.1862000196707,1280.1725000026636,True,False
13,2,723.0616931999975,circle,"(-480.0, -270.0)",0,1296.143600018695,1296.129900001688,True,False
13,2,723.0771458999952,circle,"(-480.0, -270.0)",0,1311.5963000163902,1311.582599999383,True,False
13,2,723.0956424000033,circle,"(-480.0, -270.0)",0,1330.0928000244312,1330.0791000074241,True,False
13,2,723.1114347999974,circle,"(-480.0, -270.0)",0,1345.8852000185288,1345.8715000015218,True,False
13,2,723.1292952999938,circle,"(-480.0, -270.0)",0,1363.745700014988,1363.731999997981,True,False
13,2,723.1434787999897,circle,"(-480.0, -270.0)",0,1377.9292000108398,1377.9154999938328,True,False
13,2,723.1621821000008,circle,"(-480.0, -270.0)",0,1396.6325000219513,1396.6188000049442,True,False
13,2,723.1782926000014,circle,"(-480.0, -270.0)",0,1412.7430000226013,1412.7293000055943,True,False
13,2,723.1938091999909,circle,"(-480.0, -270.0)",0,1428.2596000120975,1428.2458999950904,True,False
13,2,723.2122705999936,circle,"(-480.0, -270.0)",0,1446.7210000148043,1446.7072999977972,True,False
13,2,723.2283191999886,circle,"(-480.0, -270.0)",0,1462.7696000097785,1462.7558999927714,True,False
13,2,723.2438727999979,circle,"(-480.0, -270.0)",0,1478.3232000190765,1478.3095000020694,True,False
13,2,723.2621447999845,circle,"(-480.0, -270.0)",0,1496.595200005686,1496.5814999886788,True,False
13,2,723.2782521999907,circle,"(-480.0, -270.0)",0,1512.7026000118349,1512.6888999948278,True,False
13,2,723.2957271999912,circle,"(-480.0, -270.0)",0,1530.1776000123937,1530.1638999953866,True,False
13,2,723.3114851999853,circle,"(-480.0, -270.0)",0,1545.9356000064872,1545.9218999894802,True,False
13,2,723.3271632999822,circle,"(-480.0, -270.0)",0,1561.6137000033632,1561.5999999863561,True,False
13,2,723.3459109999822,circle,"(-480.0, -270.0)",0,1580.3614000033122,1580.347699986305,True,False
13,2,723.3613024999795,circle,"(-480.0, -270.0)",0,1595.7529000006616,1595.7391999836545,True,False
13,2,723.3766937999753,circle,"(-480.0, -270.0)",0,1611.1441999964882,1611.130499979481,True,False
13,2,723.395618199982,circle,"(-480.0, -270.0)",0,1630.068600003142,1630.0548999861348,True,False
13,2,723.4113643000019,circle,"(-480.0, -270.0)",0,1645.8147000230383,1645.8010000060312,True,False
13,2,723.4270392000035,circle,"(-480.0, -270.0)",0,1661.4896000246517,1661.4759000076447,True,False
13,2,723.4455015999847,circle,"(-480.0, -270.0)",0,1679.9520000058692,1679.9382999888621,True,False
13,2,723.4612514999753,circle,"(-480.0, -270.0)",0,1695.701899996493,1695.688199979486,True,False
13,2,723.4792199999793,circle,"(-480.0, -270.0)",0,1713.6704000004102,1713.656699983403,True,False
13,2,723.4937207000039,circle,"(-480.0, -270.0)",0,1728.1711000250652,1728.1574000080582,True,False
13,2,723.5120910999831,circle,"(-480.0, -270.0)",0,1746.5415000042412,1746.5277999872342,True,False
13,2,723.5281148999929,circle,"(-480.0, -270.0)",0,1762.5653000141028,1762.5515999970958,True,False
13,2,723.5437050999899,circle,"(-480.0, -270.0)",0,1778.155500011053,1778.1417999940459,True,False
13,2,723.5621179000009,circle,"(-480.0, -270.0)",0,1796.5683000220452,1796.554600005038,True,False
14,1,729.079599699995,circle,"(-480.0, -270.0)",0,0.012600008631125093,0.012600008631125093,False,True
14,2,729.7099114999874,circle,"(-480.0, -270.0)",250.45339998905547,630.3244000009727,630.3117999923415,True,False
14,2,729.7289955999877,circle,"(-480.0, -270.0)",0,649.4085000013001,649.395899992669,True,False
14,2,729.7446247999906,circle,"(-480.0, -270.0)",0,665.0377000041772,665.025099995546,True,False
14,2,729.76093639998,circle,"(-480.0, -270.0)",0,681.3492999935988,681.3366999849677,True,False
14,2,729.7773782000004,circle,"(-480.0, -270.0)",0,697.7911000140011,697.77850000537,True,False
14,2,729.7925533999805,circle,"(-480.0, -270.0)",0,712.9662999941502,712.953699985519,True,False
14,2,729.8101306000026,circle,"(-480.0, -270.0)",0,730.5435000162106,730.5309000075795,True,False
14,2,729.8265067999891,circle,"(-480.0, -270.0)",0,746.9197000027634,746.9070999941323,True,False
14,2,729.8439404999954,circle,"(-480.0, -270.0)",0,764.3534000089858,764.3408000003546,True,False
14,2,729.8596813999757,circle,"(-480.0, -270.0)",0,780.0942999892868,780.0816999806557,True,False
14,2,729.8772297999822,circle,"(-480.0, -270.0)",0,797.6426999957766,797.6300999871455,True,False
14,2,729.8932949999871,circle,"(-480.0, -270.0)",0,813.7079000007361,813.695299992105,True,False
14,2,729.9103753999807,circle,"(-480.0, -270.0)",0,830.7882999943104,830.7756999856792,True,False
14,2,729.9256744000013,circle,"(-480.0, -270.0)",0,846.087300014915,846.0747000062838,True,False
14,2,729.9436744999839,circle,"(-480.0, -270.0)",0,864.0873999975156,864.0747999888845,True,False
14,2,729.959352099977,circle,"(-480.0, -270.0)",0,879.7649999905843,879.7523999819532,True,False
14,2,729.9771194999921,circle,"(-480.0, -270.0)",0,897.5324000057299,897.5197999970987,True,False
14,2,729.9928975999937,circle,"(-480.0, -270.0)",0,913.3105000073556,913.2978999987245,True,False
14,2,730.0105008999817,circle,"(-480.0, -270.0)",0,930.9137999953236,930.9011999866925,True,False
14,2,730.0261360000004,circle,"(-480.0, -270.0)",0,946.5489000140224,946.5363000053912,True,False
14,2,730.0438354999933,circle,"(-480.0, -270.0)",0,964.2484000069089,964.2357999982778,True,False
14,2,730.0593313999998,circle,"(-480.0, -270.0)",0,979.7443000134081,979.7317000047769,True,False
14,2,730.0771116999967,circle,"(-480.0, -270.0)",0,997.5246000103652,997.5120000017341,True,False
14,2,730.0933011999878,circle,"(-480.0, -270.0)",0,1013.7141000013798,1013.7014999927487,True,False
14,2,730.1107194999931,circle,"(-480.0, -270.0)",0,1031.1324000067543,1031.1197999981232,True,False
14,2,730.1266048999969,circle,"(-480.0, -270.0)",0,1047.017800010508,1047.0052000018768,True,False
14,2,730.1439819999796,circle,"(-480.0, -270.0)",0,1064.3948999932036,1064.3822999845725,True,False
14,2,730.1589905000001,circle,"(-480.0, -270.0)",0,1079.403400013689,1079.3908000050578,True,False
14,2,730.1769735999987,circle,"(-480.0, -270.0)",0,1097.3865000123624,1097.3739000037313,True,False
14,2,730.1926914999785,circle,"(-480.0, -270.0)",0,1113.104399992153,1113.091799983522,True,False
14,2,730.210399100004,circle,"(-480.0, -270.0)",0,1130.8120000176132,1130.799400008982,True,False
14,2,730.2261474999832,circle,"(-480.0, -270.0)",0,1146.5603999968152,1146.5477999881841,True,False
14,2,730.243586800003,circle,"(-480.0, -270.0)",0,1163.999700016575,1163.9871000079438,True,False
14,2,730.259501499997,circle,"(-480.0, -270.0)",0,1179.9144000106025,1179.9018000019714,True,False
14,2,730.2771108000015,circle,"(-480.0, -270.0)",0,1197.5237000151537,1197.5111000065226,True,False
14,2,730.2927725999907,circle,"(-480.0, -270.0)",0,1213.1855000043288,1213.1728999956977,True,False
14,2,730.3100335999916,circle,"(-480.0, -270.0)",0,1230.4465000052005,1230.4338999965694,True,False
14,2,730.326275200001,circle,"(-480.0, -270.0)",0,1246.6881000145804,1246.6755000059493,True,False
14,2,730.3437459999986,circle,"(-480.0, -270.0)",0,1264.1589000122622,1264.146300003631,True,False
14,2,730.3593033999787,circle,"(-480.0, -270.0)",0,1279.7162999922875,1279.7036999836564,True,False
14,2,730.3770316999871,circle,"(-480.0, -270.0)",0,1297.4446000007447,1297.4319999921136,True,False
14,2,730.3922797999985,circle,"(-480.0, -270.0)",0,1312.6927000121213,1312.6801000034902,True,False
14,2,730.4103941999783,circle,"(-480.0, -270.0)",0,1330.8070999919437,1330.7944999833126,True,False
14,2,730.426209600002,circle,"(-480.0, -270.0)",0,1346.6225000156555,1346.6099000070244,True,False
14,2,730.4436132999836,circle,"(-480.0, -270.0)",0,1364.02619999717,1364.0135999885388,True,False
14,2,730.459495099989,circle,"(-480.0, -270.0)",0,1379.9080000026152,1379.895399993984,True,False
14,2,730.4770072999818,circle,"(-480.0, -270.0)",0,1397.4201999953948,1397.4075999867637,True,False
14,2,730.4924983999808,circle,"(-480.0, -270.0)",0,1412.9112999944482,1412.898699985817,True,False
14,2,730.5103603999887,circle,"(-480.0, -270.0)",0,1430.773300002329,1430.760699993698,True,False
14,2,730.5261495999875,circle,"(-480.0, -270.0)",0,1446.5625000011642,1446.549899992533,True,False
14,2,730.5437998999842,circle,"(-480.0, -270.0)",0,1464.2127999977674,1464.2001999891363,True,False
14,2,730.5594233000011,circle,"(-480.0, -270.0)",0,1479.836200014688,1479.823600006057,True,False
14,2,730.5768670999969,circle,"(-480.0, -270.0)",0,1497.2800000105053,1497.2674000018742,True,False
14,2,730.5926114000031,circle,"(-480.0, -270.0)",0,1513.0243000166956,1513.0117000080645,True,False
14,2,730.6100214000035,circle,"(-480.0, -270.0)",0,1530.4343000170775,1530.4217000084464,True,False
14,2,730.6254276999971,circle,"(-480.0, -270.0)",0,1545.840600010706,1545.828000002075,True,False
14,2,730.6439025999862,circle,"(-480.0, -270.0)",0,1564.3154999997932,1564.3028999911621,True,False
14,2,730.6588075999753,circle,"(-480.0, -270.0)",0,1579.2204999888781,1579.207899980247,True,False
14,2,730.6768901000032,circle,"(-480.0, -270.0)",0,1597.3030000168364,1597.2904000082053,True,False
14,2,730.6923699000035,circle,"(-480.0, -270.0)",0,1612.7828000171576,1612.7702000085264,True,False
14,2,730.7102349999768,circle,"(-480.0, -270.0)",0,1630.6478999904357,1630.6352999818046,True,False
14,2,730.726078799984,circle,"(-480.0, -270.0)",0,1646.4916999975685,1646.4790999889374,True,False
14,2,730.7436323000002,circle,"(-480.0, -270.0)",0,1664.0452000137884,1664.0326000051573,True,False
14,2,730.7592791999923,circle,"(-480.0, -270.0)",0,1679.6921000059228,1679.6794999972917,True,False
14,2,730.7766871999775,circle,"(-480.0, -270.0)",0,1697.1000999910757,1697.0874999824446,True,False
14,2,730.7929108999961,circle,"(-480.0, -270.0)",0,1713.3238000096753,1713.3112000010442,True,False
14,2,730.8101568999991,circle,"(-480.0, -270.0)",0,1730.569800012745,1730.5572000041138,True,False
14,2,730.8260251999891,circle,"(-480.0, -270.0)",0,1746.438100002706,1746.425499994075,True,False
14,2,730.8438595999905,circle,"(-480.0, -270.0)",0,1764.2725000041537,1764.2598999955226,True,False
14,2,730.8590509999776,circle,"(-480.0, -270.0)",0,1779.4638999912422,1779.451299982611,True,False
14,2,730.8768582999764,circle,"(-480.0, -270.0)",0,1797.271199990064,1797.2585999814328,True,False
14,2,731.9428368999797,cross,"(480.0, -270.0)",250.56809998932295,2863.249799993355,2863.2371999847237,False,True
14,3,732.209795999981,cross,"(480.0, -270.0)",264.1581999778282,3130.2088999946136,266.9591000012588,True,False
14,3,732.2279520999873,cross,"(480.0, -270.0)",0,3148.365000000922,285.1152000075672,True,False
14,3,732.2429849999899,cross,"(480.0, -270.0)",0,3163.397900003474,300.1481000101194,True,False
14,3,732.258231099986,cross,"(480.0, -270.0)",0,3178.643999999622,315.39420000626706,True,False
14,3,732.2755049999978,cross,"(480.0, -270.0)",0,3195.917900011409,332.66810001805425,True,False
14,3,732.2916596999858,cross,"(480.0, -270.0)",0,3212.072599999374,348.82280000601895,True,False
14,3,732.3096282999904,cross,"(480.0, -270.0)",0,3230.0412000040524,366.79140001069754,True,False
14,3,732.3250914999808,cross,"(480.0, -270.0)",0,3245.504399994388,382.2546000010334,True,False
14,3,732.3427651999809,cross,"(480.0, -270.0)",0,3263.1780999945477,399.92830000119284,True,False
14,3,732.3587512999948,cross,"(480.0, -270.0)",0,3279.164200008381,415.91440001502633,True,False
14,3,732.3763958999771,cross,"(480.0, -270.0)",0,3296.8087999906857,433.55899999733083,True,False
14,3,732.3923841999786,cross,"(480.0, -270.0)",0,3312.797099992167,449.5472999988124,True,False
14,3,732.4096667999984,cross,"(480.0, -270.0)",0,3330.079700011993,466.829900018638,True,False
14,3,732.4255307999847,cross,"(480.0, -270.0)",0,3345.9436999983154,482.6939000049606,True,False
14,3,732.4434357999999,cross,"(480.0, -270.0)",0,3363.8487000134774,500.5989000201225,True,False
14,3,732.4586893999949,cross,"(480.0, -270.0)",0,3379.102300008526,515.8525000151712,True,False
14,3,732.4755010999797,cross,"(480.0, -270.0)",0,3395.913999993354,532.6641999999993,True,False
14,3,732.4916605000035,cross,"(480.0, -270.0)",0,3412.073400017107,548.8236000237521,True,False
14,3,732.5088418999803,cross,"(480.0, -270.0)",0,3429.2547999939416,566.0050000005867,True,False
14,3,732.525040699984,cross,"(480.0, -270.0)",0,3445.4535999975633,582.2038000042085,True,False
14,3,732.5431501999847,cross,"(480.0, -270.0)",0,3463.5630999982823,600.3133000049274,True,False
14,3,732.5586152999895,cross,"(480.0, -270.0)",0,3479.0282000030857,615.7784000097308,True,False
14,3,732.5763357999967,cross,"(480.0, -270.0)",0,3496.7487000103574,633.4989000170026,True,False
14,3,732.5921340999776,cross,"(480.0, -270.0)",0,3512.546999991173,649.2971999978181,True,False
14,3,732.6091522999923,cross,"(480.0, -270.0)",0,3529.565200005891,666.315400012536,True,False
14,3,732.6253636000038,cross,"(480.0, -270.0)",0,3545.776500017382,682.5267000240274,True,False
14,3,732.6432965999993,cross,"(480.0, -270.0)",0,3563.7095000129193,700.4597000195645,True,False
14,3,732.658540799981,cross,"(480.0, -270.0)",0,3578.9536999945994,715.7039000012446,True,False
14,3,732.677970299992,cross,"(480.0, -270.0)",0,3598.383200005628,735.1334000122733,True,False
14,3,732.6919208999898,cross,"(480.0, -270.0)",0,3612.333800003398,749.0840000100434,True,False
14,3,732.7094957999943,cross,"(480.0, -270.0)",0,3629.9087000079453,766.6589000145905,True,False
14,3,732.7252537999884,cross,"(480.0, -270.0)",0,3645.666700002039,782.416900008684,True,False
14,3,732.7437132999767,cross,"(480.0, -270.0)",0,3664.126199990278,800.8763999969233,True,False
14,3,732.7581822999928,cross,"(480.0, -270.0)",0,3678.5952000063844,815.3454000130296,True,False
14,3,732.7758420000027,cross,"(480.0, -270.0)",0,3696.2549000163563,833.0051000230014,True,False
14,3,732.7917155000032,cross,"(480.0, -270.0)",0,3712.128400016809,848.878600023454,True,False
14,3,732.8096121999843,cross,"(480.0, -270.0)",0,3730.0250999978743,866.7753000045195,True,False
14,3,732.8254630999872,cross,"(480.0, -270.0)",0,3745.8760000008624,882.6262000075076,True,False
14,3,732.8427634999971,cross,"(480.0, -270.0)",0,3763.176400010707,899.926600017352,True,False
14,3,732.8585018999875,cross,"(480.0, -270.0)",0,3778.9148000010755,915.6650000077207,True,False
14,3,732.876732499979,cross,"(480.0, -270.0)",0,3797.145399992587,933.8955999992322,True,False
14,3,732.8925364000024,cross,"(480.0, -270.0)",0,3812.9493000160437,949.6995000226889,True,False
14,3,732.9093867999909,cross,"(480.0, -270.0)",0,3829.7997000045143,966.5499000111595,True,False
14,3,732.9258173999842,cross,"(480.0, -270.0)",0,3846.230299997842,982.9805000044871,True,False
14,3,732.9432498999813,cross,"(480.0, -270.0)",0,3863.662799994927,1000.4130000015721,True,False
14,3,732.9580943999754,cross,"(480.0, -270.0)",0,3878.5072999889962,1015.2574999956414,True,False
14,3,732.976417799975,cross,"(480.0, -270.0)",0,3896.830699988641,1033.580899995286,True,False
14,3,732.9916744999937,cross,"(480.0, -270.0)",0,3912.0874000072945,1048.8376000139397,True,False
14,3,733.0093272999802,cross,"(480.0, -270.0)",0,3929.74019999383,1066.4904000004753,True,False
14,3,733.0252764000033,cross,"(480.0, -270.0)",0,3945.6893000169657,1082.439500023611,True,False
14,3,733.0430533000035,cross,"(480.0, -270.0)",0,3963.4662000171375,1100.2164000237826,True,False
14,3,733.0584656999854,cross,"(480.0, -270.0)",0,3978.878599999007,1115.628800005652,True,False
14,3,733.0758342999907,cross,"(480.0, -270.0)",0,3996.247200004291,1132.997400010936,True,False
14,3,733.0917203999998,cross,"(480.0, -270.0)",0,4012.1333000133745,1148.8835000200197,True,False
14,3,733.109693699982,cross,"(480.0, -270.0)",0,4030.1065999956336,1166.8568000022788,True,False
14,3,733.1254501999938,cross,"(480.0, -270.0)",0,4045.8631000074092,1182.6133000140544,True,False
14,3,733.1426209999772,cross,"(480.0, -270.0)",0,4063.0338999908417,1199.784099997487,True,False
14,3,733.1584212000016,cross,"(480.0, -270.0)",0,4078.8341000152286,1215.5843000218738,True,False
14,3,733.1767364999978,cross,"(480.0, -270.0)",0,4097.1494000114035,1233.8996000180487,True,False
14,3,733.1920144000032,cross,"(480.0, -270.0)",0,4112.427300016861,1249.1775000235066,True,False
14,3,733.2093523999793,cross,"(480.0, -270.0)",0,4129.765299992869,1266.5154999995138,True,False
14,3,733.2253876999894,cross,"(480.0, -270.0)",0,4145.800600002985,1282.5508000096306,True,False
14,3,733.2429596000002,cross,"(480.0, -270.0)",0,4163.372500013793,1300.122700020438,True,False
14,3,733.2587538999796,cross,"(480.0, -270.0)",0,4179.166799993254,1315.9169999998994,True,False
14,3,733.2765131999913,cross,"(480.0, -270.0)",0,4196.92610000493,1333.6763000115752,True,False
14,3,733.2918952999753,cross,"(480.0, -270.0)",0,4212.308199988911,1349.058399995556,True,False
14,3,733.3095714999945,cross,"(480.0, -270.0)",0,4229.984400008107,1366.7346000147518,True,False
14,3,733.3250162999902,cross,"(480.0, -270.0)",0,4245.429200003855,1382.1794000105,True,False
14,3,733.3433673999971,cross,"(480.0, -270.0)",0,4263.780300010694,1400.5305000173394,True,False
14,3,733.3585843000037,cross,"(480.0, -270.0)",0,4278.997200017329,1415.7474000239745,True,False
14,3,733.3780374999915,cross,"(480.0, -270.0)",0,4298.450400005095,1435.2006000117399,True,False
14,3,733.3918686999823,cross,"(480.0, -270.0)",0,4312.281599995913,1449.0318000025582,True,False
14,3,733.4089468999882,cross,"(480.0, -270.0)",0,4329.359800001839,1466.1100000084843,True,False
14,3,733.4251207999769,cross,"(480.0, -270.0)",0,4345.533699990483,1482.2838999971282,True,False
14,3,733.4426894999924,cross,"(480.0, -270.0)",0,4363.102400006028,1499.852600012673,True,False
14,3,733.4581085999962,cross,"(480.0, -270.0)",0,4378.521500009811,1515.2717000164557,True,False
14,3,733.4755432999809,cross,"(480.0, -270.0)",0,4395.956199994544,1532.7064000011887,True,False
14,3,733.4920902999875,cross,"(480.0, -270.0)",0,4412.503200001083,1549.2534000077285,True,False
14,3,733.5099642999994,cross,"(480.0, -270.0)",0,4430.377200013027,1567.1274000196718,True,False
14,3,733.5253244999913,cross,"(480.0, -270.0)",0,4445.737400004873,1582.4876000115182,True,False
14,3,733.542728499975,cross,"(480.0, -270.0)",0,4463.141399988672,1599.891599995317,True,False
14,3,733.5581743999792,cross,"(480.0, -270.0)",0,4478.587299992796,1615.3374999994412,True,False
14,3,733.576436000003,cross,"(480.0, -270.0)",0,4496.84890001663,1633.5991000232752,True,False
14,3,733.5922196999891,cross,"(480.0, -270.0)",0,4512.632600002689,1649.3828000093345,True,False
14,3,733.6092486999987,cross,"(480.0, -270.0)",0,4529.661600012332,1666.4118000189774,True,False
14,3,733.6250839999993,cross,"(480.0, -270.0)",0,4545.4969000129495,1682.2471000195947,True,False
14,3,733.6428957000026,cross,"(480.0, -270.0)",0,4563.308600016171,1700.0588000228163,True,False
14,3,733.6579213999794,cross,"(480.0, -270.0)",0,4578.334299993003,1715.084499999648,True,False
14,3,733.6757779000036,cross,"(480.0, -270.0)",0,4596.190800017212,1732.9410000238568,True,False
14,3,733.6913300000015,cross,"(480.0, -270.0)",0,4611.742900015088,1748.493100021733,True,False
14,3,733.7088449999865,cross,"(480.0, -270.0)",0,4629.257900000084,1766.0081000067294,True,False
14,3,734.7088547000021,t,"(480.0, 270.0)",251.23000002349727,5629.267600015737,2766.0178000223823,False,True
14,4,736.5085503000009,star,"(-480.0, 270.0)",899.977300025057,7428.96320001455,1799.6955999988131,False,True
15,1,740.6440527999948,circle,"(-480.0, -270.0)",0,0.011199997970834374,0.011199997970834374,False,True
15,2,740.9078812999942,circle,"(-480.0, -270.0)",262.1117999951821,263.8396999973338,263.828499999363,True,False
15,2,740.9278709999926,circle,"(-480.0, -270.0)",0,283.82939999573864,283.8181999977678,True,False
15,2,740.9419335999992,circle,"(-480.0, -270.0)",0,297.89200000232086,297.88080000435,True,False
15,2,740.9578722000006,circle,"(-480.0, -270.0)",0,313.8306000037119,313.81940000574104,True,False
15,2,740.9745036999811,circle,"(-480.0, -270.0)",0,330.4620999842882,330.4508999863174,True,False
15,2,740.991544199991,circle,"(-480.0, -270.0)",0,347.5025999941863,347.4913999962155,True,False
15,2,741.0081891999871,circle,"(-480.0, -270.0)",0,364.1475999902468,364.136399992276,True,False
15,2,741.0244725999946,circle,"(-480.0, -270.0)",0,380.4309999977704,380.4197999997996,True,False
15,2,741.041212799988,circle,"(-480.0, -270.0)",0,397.1711999911349,397.1599999931641,True,False
15,2,741.0574224999873,circle,"(-480.0, -270.0)",0,413.38089999044314,413.3696999924723,True,False
15,2,741.0747774999763,circle,"(-480.0, -270.0)",0,430.7358999794815,430.72469998151064,True,False
15,2,741.0909229999816,circle,"(-480.0, -270.0)",0,446.88139998470433,446.8701999867335,True,False
15,2,741.1075960999879,circle,"(-480.0, -270.0)",0,463.5544999910053,463.54329999303445,True,False
15,2,741.1239588999888,circle,"(-480.0, -270.0)",0,479.9172999919392,479.9060999939684,True,False
15,2,741.1414975999796,circle,"(-480.0, -270.0)",0,497.4559999827761,497.4447999848053,True,False
15,2,741.1579156999942,circle,"(-480.0, -270.0)",0,513.8740999973379,513.8628999993671,True,False
15,2,741.1756602999812,circle,"(-480.0, -270.0)",0,531.6186999843922,531.6074999864213,True,False
15,2,741.191923699982,circle,"(-480.0, -270.0)",0,547.882099985145,547.8708999871742,True,False
15,2,741.208590299997,circle,"(-480.0, -270.0)",0,564.5487000001594,564.5375000021886,True,False
15,2,741.2235634999815,circle,"(-480.0, -270.0)",0,579.5218999846838,579.510699986713,True,False
15,2,741.2408169999835,circle,"(-480.0, -270.0)",0,596.7753999866545,596.7641999886837,True,False
15,2,741.2574971999857,circle,"(-480.0, -270.0)",0,613.4555999888107,613.4443999908399,True,False
15,2,741.2743941999797,circle,"(-480.0, -270.0)",0,630.3525999828707,630.3413999848999,True,False
15,2,741.2907130999956,circle,"(-480.0, -270.0)",0,646.6714999987744,646.6603000008035,True,False
15,2,741.3079513999983,circle,"(-480.0, -270.0)",0,663.9098000014201,663.8986000034492,True,False
15,2,741.3237613999809,circle,"(-480.0, -270.0)",0,679.7197999840137,679.7085999860428,True,False
15,2,741.3413110999973,circle,"(-480.0, -270.0)",0,697.2695000004023,697.2583000024315,True,False
15,2,741.3579689000035,circle,"(-480.0, -270.0)",0,713.9273000066169,713.916100008646,True,False
15,2,741.3743484999868,circle,"(-480.0, -270.0)",0,730.3068999899551,730.2956999919843,True,False
15,2,741.3909303999972,circle,"(-480.0, -270.0)",0,746.8888000003062,746.8776000023354,True,False
15,2,741.4082316999848,circle,"(-480.0, -270.0)",0,764.1900999878999,764.178899989929,True,False
15,2,741.4247571000014,circle,"(-480.0, -270.0)",0,780.7155000045896,780.7043000066187,True,False
15,2,741.4411771000014,circle,"(-480.0, -270.0)",0,797.135500004515,797.1243000065442,True,False
15,2,741.4569799999881,circle,"(-480.0, -270.0)",0,812.9383999912534,812.9271999932826,True,False
15,2,741.4746868999791,circle,"(-480.0, -270.0)",0,830.6452999822795,830.6340999843087,True,False
15,2,741.4911066999775,circle,"(-480.0, -270.0)",0,847.0650999806821,847.0538999827113,True,False
15,2,741.5081968999875,circle,"(-480.0, -270.0)",0,864.1552999906708,864.1440999926999,True,False
15,2,741.5236651999876,circle,"(-480.0, -270.0)",0,879.6235999907367,879.6123999927659,True,False
15,2,741.5412441999943,circle,"(-480.0, -270.0)",0,897.2025999973994,897.1913999994285,True,False
15,2,741.557754199981,circle,"(-480.0, -270.0)",0,913.7125999841373,913.7013999861665,True,False
15,2,741.5742445999931,circle,"(-480.0, -270.0)",0,930.2029999962542,930.1917999982834,True,False
15,2,741.5905035999895,circle,"(-480.0, -270.0)",0,946.4619999926072,946.4507999946363,True,False
15,2,741.607456400001,circle,"(-480.0, -270.0)",0,963.4148000041023,963.4036000061315,True,False
15,2,741.6239113999764,circle,"(-480.0, -270.0)",0,979.8697999794967,979.8585999815259,True,False
15,2,741.6407036999881,circle,"(-480.0, -270.0)",0,996.6620999912266,996.6508999932557,True,False
15,2,741.6571509999922,circle,"(-480.0, -270.0)",0,1013.1093999953009,1013.0981999973301,True,False
15,2,741.6743027999764,circle,"(-480.0, -270.0)",0,1030.2611999795772,1030.2499999816064,True,False
15,2,741.6906873999978,circle,"(-480.0, -270.0)",0,1046.645800000988,1046.634600003017,True,False
15,2,741.7085910000023,circle,"(-480.0, -270.0)",0,1064.5494000054896,1064.5382000075188,True,False
15,2,741.7257403999974,circle,"(-480.0, -270.0)",0,1081.698800000595,1081.687600002624,True,False
15,2,741.7415722000005,circle,"(-480.0, -270.0)",0,1097.5306000036653,1097.5194000056945,True,False
15,2,741.7572906999849,circle,"(-480.0, -270.0)",0,1113.2490999880247,1113.2378999900538,True,False
15,2,741.7744266999944,circle,"(-480.0, -270.0)",0,1130.3850999975111,1130.3738999995403,True,False
15,2,741.7908207,circle,"(-480.0, -270.0)",0,1146.7791000031866,1146.7679000052158,True,False
15,2,741.807468199986,circle,"(-480.0, -270.0)",0,1163.4265999891795,1163.4153999912087,True,False
15,2,741.8239445999789,circle,"(-480.0, -270.0)",0,1179.902999982005,1179.8917999840342,True,False
15,2,741.8409847999865,circle,"(-480.0, -270.0)",0,1196.9431999896187,1196.931999991648,True,False
15,2,741.8570380999881,circle,"(-480.0, -270.0)",0,1212.9964999912772,1212.9852999933064,True,False
15,2,741.8739855999884,circle,"(-480.0, -270.0)",0,1229.9439999915194,1229.9327999935485,True,False
15,2,741.8903649999993,circle,"(-480.0, -270.0)",0,1246.3234000024386,1246.3122000044677,True,False
15,2,741.9073382999923,circle,"(-480.0, -270.0)",0,1263.2966999954078,1263.285499997437,True,False
15,2,741.9238720999856,circle,"(-480.0, -270.0)",0,1279.8304999887478,1279.819299990777,True,False
15,2,741.9420539999846,circle,"(-480.0, -270.0)",0,1298.0123999877833,1298.0011999898124,True,False
15,2,741.9581340999866,circle,"(-480.0, -270.0)",0,1314.0924999897834,1314.0812999918126,True,False
15,2,741.9774627999868,circle,"(-480.0, -270.0)",0,1333.4211999899708,1333.409999992,True,False
15,2,741.9913015999773,circle,"(-480.0, -270.0)",0,1347.2599999804515,1347.2487999824807,True,False
15,2,742.0087459999777,circle,"(-480.0, -270.0)",0,1364.7043999808375,1364.6931999828666,True,False
15,2,742.0237388999958,circle,"(-480.0, -270.0)",0,1379.697299998952,1379.6861000009812,True,False
15,2,742.0406969999894,circle,"(-480.0, -270.0)",0,1396.6553999925964,1396.6441999946255,True,False
15,2,742.0573982999776,circle,"(-480.0, -270.0)",0,1413.3566999807954,1413.3454999828245,True,False
15,2,742.0743160999846,circle,"(-480.0, -270.0)",0,1430.2744999877177,1430.2632999897469,True,False
15,2,742.0908374999999,circle,"(-480.0, -270.0)",0,1446.7959000030532,1446.7847000050824,True,False
15,2,742.1078483999881,circle,"(-480.0, -270.0)",0,1463.8067999912892,1463.7955999933183,True,False
15,2,742.1236493999895,circle,"(-480.0, -270.0)",0,1479.6077999926638,1479.596599994693,True,False
15,2,742.14126449998,circle,"(-480.0, -270.0)",0,1497.2228999831714,1497.2116999852005,True,False
15,2,742.1564423999807,circle,"(-480.0, -270.0)",0,1512.4007999838796,1512.3895999859087,True,False
15,2,742.1740974999848,circle,"(-480.0, -270.0)",0,1530.0558999879286,1530.0446999899577,True,False
15,2,742.1907802999776,circle,"(-480.0, -270.0)",0,1546.7386999807786,1546.7274999828078,True,False
15,2,742.2081950999855,circle,"(-480.0, -270.0)",0,1564.1534999886062,1564.1422999906354,True,False
15,2,742.223952100001,circle,"(-480.0, -270.0)",0,1579.910500004189,1579.8993000062183,True,False
15,2,742.2410889999883,circle,"(-480.0, -270.0)",0,1597.0473999914248,1597.036199993454,True,False
15,2,742.2574200999807,circle,"(-480.0, -270.0)",0,1613.37849998381,1613.367299985839,True,False
15,2,742.2741772999871,circle,"(-480.0, -270.0)",0,1630.1356999902055,1630.1244999922346,True,False
15,2,742.2905671999906,circle,"(-480.0, -270.0)",0,1646.5255999937654,1646.5143999957945,True,False
15,2,742.3076029999938,circle,"(-480.0, -270.0)",0,1663.5613999969792,1663.5501999990083,True,False
15,2,742.3235962999752,circle,"(-480.0, -270.0)",0,1679.5546999783255,1679.5434999803547,True,False
15,2,742.340744599991,circle,"(-480.0, -270.0)",0,1696.7029999941587,1696.691799996188,True,False
15,2,742.3569476999983,circle,"(-480.0, -270.0)",0,1712.906100001419,1712.8949000034481,True,False
15,2,742.3733476999914,circle,"(-480.0, -270.0)",0,1729.3060999945737,1729.294899996603,True,False
15,2,742.3894774999935,circle,"(-480.0, -270.0)",0,1745.4358999966644,1745.4246999986935,True,False
15,2,742.4072495999862,circle,"(-480.0, -270.0)",0,1763.2079999893904,1763.1967999914195,True,False
15,2,742.4230859999952,circle,"(-480.0, -270.0)",0,1779.0443999983836,1779.0332000004128,True,False
15,2,742.4412635999906,circle,"(-480.0, -270.0)",0,1797.2219999937806,1797.2107999958098,True,False
16,1,747.9568358999968,circle,"(-480.0, -270.0)",0,0.014699995517730713,0.014699995517730713,False,True
16,2,748.8054192999844,circle,"(-480.0, -270.0)",250.48180000158027,848.5980999830645,848.5833999875467,True,False
16,2,748.8241504000034,circle,"(-480.0, -270.0)",0,867.329200002132,867.3145000066143,True,False
16,2,748.83871489999,circle,"(-480.0, -270.0)",0,881.8936999887228,881.8789999932051,True,False
16,2,748.8546605999873,circle,"(-480.0, -270.0)",0,897.8393999859691,897.8246999904513,True,False
16,2,748.8716978000011,circle,"(-480.0, -270.0)",0,914.8765999998432,914.8619000043254,True,False
16,2,748.8881769999862,circle,"(-480.0, -270.0)",0,931.3557999848854,931.3410999893676,True,False
16,2,748.9052013999899,circle,"(-480.0, -270.0)",0,948.3801999886055,948.3654999930877,True,False
16,2,748.9211841999786,circle,"(-480.0, -270.0)",0,964.3629999773111,964.3482999817934,True,False
16,2,748.938949399977,circle,"(-480.0, -270.0)",0,982.1281999757048,982.113499980187,True,False
16,2,748.9552472999785,circle,"(-480.0, -270.0)",0,998.4260999772232,998.4113999817055,True,False
16,2,748.9720517999958,circle,"(-480.0, -270.0)",0,1015.2305999945384,1015.2158999990206,True,False
16,2,748.9879948000016,circle,"(-480.0, -270.0)",0,1031.1736000003293,1031.1589000048116,True,False
16,2,749.0054433999758,circle,"(-480.0, -270.0)",0,1048.6221999744885,1048.6074999789707,True,False
16,2,749.0219515999779,circle,"(-480.0, -270.0)",0,1065.1303999766242,1065.1156999811064,True,False
16,2,749.0391025999852,circle,"(-480.0, -270.0)",0,1082.2813999839127,1082.266699988395,True,False
16,2,749.0551061999868,circle,"(-480.0, -270.0)",0,1098.2849999854807,1098.270299989963,True,False
16,2,749.0721138999797,circle,"(-480.0, -270.0)",0,1115.292699978454,1115.2779999829363,True,False
16,2,749.0874258999829,circle,"(-480.0, -270.0)",0,1130.6046999816317,1130.589999986114,True,False
16,2,749.1056804999826,circle,"(-480.0, -270.0)",0,1148.8592999812681,1148.8445999857504,True,False
16,2,749.1220081999782,circle,"(-480.0, -270.0)",0,1165.1869999768678,1165.17229998135,True,False
16,2,749.1390612999967,circle,"(-480.0, -270.0)",0,1182.240099995397,1182.2253999998793,True,False
16,2,749.1545627999876,circle,"(-480.0, -270.0)",0,1197.7415999863297,1197.726899990812,True,False
16,2,749.1718479999981,circle,"(-480.0, -270.0)",0,1215.0267999968491,1215.0121000013314,True,False
16,2,749.1883858999936,circle,"(-480.0, -270.0)",0,1231.5646999923047,1231.549999996787,True,False
16,2,749.2047954000009,circle,"(-480.0, -270.0)",0,1247.9741999995895,1247.9595000040717,True,False
16,2,749.2217059999821,circle,"(-480.0, -270.0)",0,1264.8847999807913,1264.8700999852736,True,False
16,2,749.2385104999994,circle,"(-480.0, -270.0)",0,1281.6892999981064,1281.6746000025887,True,False
16,2,749.2552837999829,circle,"(-480.0, -270.0)",0,1298.4625999815762,1298.4478999860585,True,False
16,2,749.2720843999996,circle,"(-480.0, -270.0)",0,1315.2631999982987,1315.248500002781,True,False
16,2,749.288015899976,circle,"(-480.0, -270.0)",0,1331.1946999747306,1331.1799999792129,True,False
16,2,749.3048588999955,circle,"(-480.0, -270.0)",0,1348.0376999941655,1348.0229999986477,True,False
16,2,749.3220190999855,circle,"(-480.0, -270.0)",0,1365.1978999841958,1365.183199988678,True,False
16,2,749.3384267999791,circle,"(-480.0, -270.0)",0,1381.6055999777745,1381.5908999822568,True,False
16,2,749.3548474999843,circle,"(-480.0, -270.0)",0,1398.0262999830302,1398.0115999875125,True,False
16,2,749.3720424999774,circle,"(-480.0, -270.0)",0,1415.2212999761105,1415.2065999805927,True,False
16,2,749.3881543999887,circle,"(-480.0, -270.0)",0,1431.3331999874208,1431.318499991903,True,False
16,2,749.4051248999895,circle,"(-480.0, -270.0)",0,1448.3036999881733,1448.2889999926556,True,False
16,2,749.421388799994,circle,"(-480.0, -270.0)",0,1464.5675999927334,1464.5528999972157,True,False
16,2,749.4382083999808,circle,"(-480.0, -270.0)",0,1481.3871999795083,1481.3724999839906,True,False
16,2,749.4542080999818,circle,"(-480.0, -270.0)",0,1497.3868999804836,1497.3721999849658,True,False
16,2,749.471463599999,circle,"(-480.0, -270.0)",0,1514.6423999976832,1514.6277000021655,True,False
16,2,749.4884016999858,circle,"(-480.0, -270.0)",0,1531.5804999845568,1531.565799989039,True,False
16,2,749.5047629999754,circle,"(-480.0, -270.0)",0,1547.941799974069,1547.9270999785513,True,False
16,2,749.5215266000014,circle,"(-480.0, -270.0)",0,1564.7054000000935,1564.6907000045758,True,False
16,2,749.53825339998,circle,"(-480.0, -270.0)",0,1581.4321999787353,1581.4174999832176,True,False
16,2,749.5541882999823,circle,"(-480.0, -270.0)",0,1597.3670999810565,1597.3523999855388,True,False
16,2,749.5716446999868,circle,"(-480.0, -270.0)",0,1614.823499985505,1614.8087999899872,True,False
16,2,749.5884734999854,circle,"(-480.0, -270.0)",0,1631.6522999841254,1631.6375999886077,True,False
16,2,749.6047577999998,circle,"(-480.0, -270.0)",0,1647.936599998502,1647.9219000029843,True,False
16,2,749.620960100001,circle,"(-480.0, -270.0)",0,1664.1388999996707,1664.124200004153,True,False
16,2,749.639234799979,circle,"(-480.0, -270.0)",0,1682.4135999777354,1682.3988999822177,True,False
16,2,749.6551393999835,circle,"(-480.0, -270.0)",0,1698.3181999821682,1698.3034999866504,True,False
16,2,749.6720115999924,circle,"(-480.0, -270.0)",0,1715.1903999911156,1715.1756999955978,True,False
16,2,749.6877109999768,circle,"(-480.0, -270.0)",0,1730.8897999755573,1730.8750999800395,True,False
16,2,749.7044676999794,circle,"(-480.0, -270.0)",0,1747.6464999781456,1747.6317999826279,True,False
16,2,749.7214584999892,circle,"(-480.0, -270.0)",0,1764.6372999879532,1764.6225999924354,True,False
16,2,749.7380988999794,circle,"(-480.0, -270.0)",0,1781.2776999780908,1781.262999982573,True,False
16,2,749.9375907999929,star,"(-480.0, 270.0)",263.4357000060845,1980.7695999916177,1980.7548999961,False,True
16,3,750.2046861999843,star,"(-480.0, 270.0)",263.09500000206754,2247.864999982994,267.0953999913763,True,False
16,3,750.2252491999825,star,"(-480.0, 270.0)",0,2268.4279999812134,287.65839998959564,True,False
16,3,750.2382425999967,star,"(-480.0, 270.0)",0,2281.421399995452,300.65180000383407,True,False
16,3,750.2548711999843,star,"(-480.0, 270.0)",0,2298.04999998305,317.2803999914322,True,False
16,3,750.2719707999786,star,"(-480.0, 270.0)",0,2315.1495999773033,334.3799999856856,True,False
16,3,750.2879038999963,star,"(-480.0, 270.0)",0,2331.0826999950223,350.31310000340454,True,False
16,3,750.3045180999907,star,"(-480.0, 270.0)",0,2347.696899989387,366.9272999977693,True,False
16,3,750.3204916999966,star,"(-480.0, 270.0)",0,2363.670499995351,382.9009000037331,True,False
16,3,750.3381207999773,star,"(-480.0, 270.0)",0,2381.299599976046,400.5299999844283,True,False
16,3,750.3545028999797,star,"(-480.0, 270.0)",0,2397.6816999784205,416.9120999868028,True,False
16,3,750.372163699998,star,"(-480.0, 270.0)",0,2415.3424999967683,434.5729000051506,True,False
16,3,750.3878792999894,star,"(-480.0, 270.0)",0,2431.0580999881495,450.28849999653175,True,False
16,3,750.4047942000034,star,"(-480.0, 270.0)",0,2447.9730000020936,467.2034000104759,True,False
16,3,750.421547099977,star,"(-480.0, 270.0)",0,2464.725899975747,483.95629998412915,True,False
16,3,750.437557600002,star,"(-480.0, 270.0)",0,2480.736400000751,499.9668000091333,True,False
16,3,750.4542491000029,star,"(-480.0, 270.0)",0,2497.4279000016395,516.6583000100218,True,False
16,3,750.4713129999873,star,"(-480.0, 270.0)",0,2514.49179998599,533.7221999943722,True,False
16,3,750.487675899989,star,"(-480.0, 270.0)",0,2530.8546999876853,550.0850999960676,True,False
16,3,750.5042024999857,star,"(-480.0, 270.0)",0,2547.3812999844085,566.6116999927908,True,False
16,3,750.5207933999773,star,"(-480.0, 270.0)",0,2563.9721999759786,583.2025999843609,True,False
16,3,750.5378615999944,star,"(-480.0, 270.0)",0,2581.0403999930713,600.2708000014536,True,False
16,3,750.5548819999967,star,"(-480.0, 270.0)",0,2598.0607999954373,617.2912000038195,True,False
16,3,750.5718342999753,star,"(-480.0, 270.0)",0,2615.0130999740213,634.2434999824036,True,False
16,3,750.5879643999797,star,"(-480.0, 270.0)",0,2631.1431999783963,650.3735999867786,True,False
16,3,750.6053108999913,star,"(-480.0, 270.0)",0,2648.489699990023,667.7200999984052,True,False
16,3,750.6215451000025,star,"(-480.0, 270.0)",0,2664.7239000012632,683.9543000096455,True,False
16,3,750.6383540999959,star,"(-480.0, 270.0)",0,2681.532899994636,700.7633000030182,True,False
16,3,750.6548280999996,star,"(-480.0, 270.0)",0,2698.0068999982905,717.2373000066727,True,False
16,3,750.671050999983,star,"(-480.0, 270.0)",0,2714.2297999816947,733.460199990077,True,False
16,3,750.6877752,star,"(-480.0, 270.0)",0,2730.9539999987464,750.1844000071287,True,False
16,3,750.7050104999798,star,"(-480.0, 270.0)",0,2748.1892999785487,767.4196999869309,True,False
16,3,750.7219983999967,star,"(-480.0, 270.0)",0,2765.177199995378,784.4076000037603,True,False
16,3,750.7423857999966,star,"(-480.0, 270.0)",0,2785.5645999952685,804.7950000036508,True,False
16,3,750.7707930000033,star,"(-480.0, 270.0)",0,2813.9718000020366,833.2022000104189,True,False
16,3,750.7874325999874,star,"(-480.0, 270.0)",0,2830.6113999860827,849.841799994465,True,False
16,3,750.804106800002,star,"(-480.0, 270.0)",0,2847.2856000007596,866.5160000091419,True,False
16,3,750.8217110999976,star,"(-480.0, 270.0)",0,2864.889899996342,884.1203000047244,True,False
16,3,750.8381799999916,star,"(-480.0, 270.0)",0,2881.3587999902666,900.5891999986488,True,False
16,3,750.855129100004,star,"(-480.0, 270.0)",0,2898.307900002692,917.5383000110742,True,False
16,3,750.8710908999783,star,"(-480.0, 270.0)",0,2914.2696999770124,933.5000999853946,True,False
16,3,750.8871420999931,star,"(-480.0, 270.0)",0,2930.3208999917842,949.5513000001665,True,False
16,3,750.9044990999973,star,"(-480.0, 270.0)",0,2947.6778999960516,966.9083000044338,True,False
16,3,750.9210868999944,star,"(-480.0, 270.0)",0,2964.2656999931205,983.4961000015028,True,False
16,3,750.9383552999934,star,"(-480.0, 270.0)",0,2981.534099992132,1000.7645000005141,True,False
16,3,750.9544108999835,star,"(-480.0, 270.0)",0,2997.5896999822,1016.8200999905821,True,False
16,3,750.971335499984,star,"(-480.0, 270.0)",0,3014.514299982693,1033.7446999910753,True,False
16,3,750.9875823000039,star,"(-480.0, 270.0)",0,3030.7611000025645,1049.9915000109468,True,False
16,3,751.0048819999793,star,"(-480.0, 270.0)",0,3048.060799977975,1067.2911999863572,True,False
16,3,751.0206848999951,star,"(-480.0, 270.0)",0,3063.863699993817,1083.0941000021994,True,False
16,3,751.0376064000011,star,"(-480.0, 270.0)",0,3080.7851999998093,1100.0156000081915,True,False
16,3,751.0544641999877,star,"(-480.0, 270.0)",0,3097.6429999864195,1116.8733999948017,True,False
16,3,751.0711440999876,star,"(-480.0, 270.0)",0,3114.3228999862913,1133.5532999946736,True,False
16,3,751.0872313999862,star,"(-480.0, 270.0)",0,3130.410199984908,1149.6405999932904,True,False
16,3,751.1047543000022,star,"(-480.0, 270.0)",0,3147.933100000955,1167.1635000093374,True,False
16,3,751.1210684999824,star,"(-480.0, 270.0)",0,3164.2472999810707,1183.477699989453,True,False
16,3,751.1382172000012,star,"(-480.0, 270.0)",0,3181.3959999999497,1200.626400008332,True,False
16,3,751.1541117999877,star,"(-480.0, 270.0)",0,3197.290599986445,1216.5209999948274,True,False
16,3,751.1708721999894,star,"(-480.0, 270.0)",0,3214.0509999881033,1233.2813999964856,True,False
16,3,751.1872382999863,star,"(-480.0, 270.0)",0,3230.417099985061,1249.6474999934435,True,False
16,3,751.2044849999947,star,"(-480.0, 270.0)",0,3247.663799993461,1266.8942000018433,True,False
16,3,751.2208180000016,star,"(-480.0, 270.0)",0,3263.9968000003137,1283.227200008696,True,False
16,3,751.24161919998,star,"(-480.0, 270.0)",0,3284.797999978764,1304.0283999871463,True,False
16,3,751.2543551999843,star,"(-480.0, 270.0)",0,3297.5339999829885,1316.7643999913707,True,False
16,3,751.2711759999802,star,"(-480.0, 270.0)",0,3314.3547999789007,1333.585199987283,True,False
16,3,751.2872680999862,star,"(-480.0, 270.0)",0,3330.4468999849632,1349.6772999933455,True,False
16,3,751.3054520000005,star,"(-480.0, 270.0)",0,3348.6307999992277,1367.86120000761,True,False
16,3,751.3201410999754,star,"(-480.0, 270.0)",0,3363.319899974158,1382.5502999825403,True,False
16,3,751.3384536999802,star,"(-480.0, 270.0)",0,3381.6324999788776,1400.8628999872599,True,False
16,3,751.3533532999863,star,"(-480.0, 270.0)",0,3396.532099985052,1415.7624999934342,True,False
16,3,751.3711658999964,star,"(-480.0, 270.0)",0,3414.3446999951266,1433.5751000035089,True,False
16,3,751.3875235999876,star,"(-480.0, 270.0)",0,3430.7023999863304,1449.9327999947127,True,False
16,3,751.4049011000025,star,"(-480.0, 270.0)",0,3448.0799000011757,1467.310300009558,True,False
16,3,751.4206388999883,star,"(-480.0, 270.0)",0,3463.8176999869756,1483.048099995358,True,False
16,3,751.4379009999975,star,"(-480.0, 270.0)",0,3481.0797999962233,1500.3102000046056,True,False
16,3,751.4541335999966,star,"(-480.0, 270.0)",0,3497.3123999952804,1516.5428000036627,True,False
16,3,751.4707414000004,star,"(-480.0, 270.0)",0,3513.92019999912,1533.1506000075024,True,False
16,3,751.4873059999954,star,"(-480.0, 270.0)",0,3530.4847999941558,1549.715200002538,True,False
16,3,751.5041728999931,star,"(-480.0, 270.0)",0,3547.35169999185,1566.5821000002325,True,False
16,3,751.5210440999945,star,"(-480.0, 270.0)",0,3564.222899993183,1583.4533000015654,True,False
16,3,751.5373034999939,star,"(-480.0, 270.0)",0,3580.482299992582,1599.712700000964,True,False
16,3,751.5542680999788,star,"(-480.0, 270.0)",0,3597.4468999775127,1616.677299985895,True,False
16,3,751.5708558999759,star,"(-480.0, 270.0)",0,3614.0346999745816,1633.2650999829639,True,False
16,3,751.5872199999867,star,"(-480.0, 270.0)",0,3630.3987999854144,1649.6291999937966,True,False
16,3,751.6044597,star,"(-480.0, 270.0)",0,3647.6384999987204,1666.8689000071026,True,False
16,3,751.6213180999912,star,"(-480.0, 270.0)",0,3664.4968999898992,1683.7272999982815,True,False
16,3,751.6373060999904,star,"(-480.0, 270.0)",0,3680.4848999890964,1699.7152999974787,True,False
16,3,751.6542277999979,star,"(-480.0, 270.0)",0,3697.4065999966115,1716.6370000049938,True,False
16,3,751.6707521999779,star,"(-480.0, 270.0)",0,3713.930999976583,1733.161399984965,True,False
16,3,751.6877030000032,star,"(-480.0, 270.0)",0,3730.881800001953,1750.112200010335,True,False
16,3,751.7049695999885,star,"(-480.0, 270.0)",0,3748.148399987258,1767.3787999956403,True,False
16,3,751.7205688999966,star,"(-480.0, 270.0)",0,3763.7476999952924,1782.9781000036746,True,False
16,3,751.7379098999954,star,"(-480.0, 270.0)",0,3781.088699994143,1800.3191000025254,True,False
16,3,752.1042832999956,cross,"(480.0, -270.0)",250.59589999727905,4147.4620999943,2166.692500002682,False,True
16,4,754.6370588999998,circle,"(-480.0, -270.0)",267.1056000108365,6680.237699998543,2532.7756000042427,False,True
17,1,758.7720394999778,circle,"(-480.0, -270.0)",0,0.012499978765845299,0.012499978765845299,False,True
17,2,759.6007944000012,circle,"(-480.0, -270.0)",266.44649999798276,828.767400002107,828.7549000233412,True,False
17,2,759.6208343000035,circle,"(-480.0, -270.0)",0,848.8073000044096,848.7948000256438,True,False
17,2,759.6351185999811,circle,"(-480.0, -270.0)",0,863.091599981999,863.0791000032332,True,False
17,2,759.6503902999975,circle,"(-480.0, -270.0)",0,878.3632999984547,878.3508000196889,True,False
17,2,759.6682928999944,circle,"(-480.0, -270.0)",0,896.2658999953419,896.253400016576,True,False
17,2,759.6836782000028,circle,"(-480.0, -270.0)",0,911.6512000036892,911.6387000249233,True,False
17,2,759.7018129999924,circle,"(-480.0, -270.0)",0,929.785999993328,929.7735000145622,True,False
17,2,759.7184077999846,circle,"(-480.0, -270.0)",0,946.3807999854907,946.3683000067249,True,False
17,2,759.7356591999996,circle,"(-480.0, -270.0)",0,963.6322000005748,963.619700021809,True,False
17,2,759.7517511999758,circle,"(-480.0, -270.0)",0,979.7241999767721,979.7116999980062,True,False
17,2,759.768759700004,circle,"(-480.0, -270.0)",0,996.7327000049409,996.720200026175,True,False
17,2,759.7867497999978,circle,"(-480.0, -270.0)",0,1014.7227999987081,1014.7103000199422,True,False
17,2,759.8016991999757,circle,"(-480.0, -270.0)",0,1029.6721999766305,1029.6596999978647,True,False
17,2,759.8170599000005,circle,"(-480.0, -270.0)",0,1045.032900001388,1045.0204000226222,True,False
17,2,759.8341401999933,circle,"(-480.0, -270.0)",0,1062.1131999942008,1062.100700015435,True,False
17,2,759.849756199983,circle,"(-480.0, -270.0)",0,1077.729199983878,1077.7167000051122,True,False
17,2,759.8680815999978,circle,"(-480.0, -270.0)",0,1096.0545999987517,1096.0421000199858,True,False
17,2,759.8835118999996,circle,"(-480.0, -270.0)",0,1111.4849000005051,1111.4724000217393,True,False
17,2,759.9021363999927,circle,"(-480.0, -270.0)",0,1130.109399993671,1130.0969000149053,True,False
17,2,759.9175998999854,circle,"(-480.0, -270.0)",0,1145.5728999862913,1145.5604000075255,True,False
17,2,759.9341255999752,circle,"(-480.0, -270.0)",0,1162.0985999761615,1162.0860999973956,True,False
17,2,759.9495979999774,circle,"(-480.0, -270.0)",0,1177.570999978343,1177.5584999995772,True,False
17,2,759.9671609999787,circle,"(-480.0, -270.0)",0,1195.1339999795891,1195.1215000008233,True,False
17,2,759.9830122999847,circle,"(-480.0, -270.0)",0,1210.985299985623,1210.9728000068571,True,False
17,2,760.0001702999871,circle,"(-480.0, -270.0)",0,1228.1432999880053,1228.1308000092395,True,False
17,2,760.0158554999798,circle,"(-480.0, -270.0)",0,1243.8284999807365,1243.8160000019707,True,False
17,2,760.0340972999984,circle,"(-480.0, -270.0)",0,1262.0702999993227,1262.057800020557,True,False
17,2,760.0498520999972,circle,"(-480.0, -270.0)",0,1277.8250999981537,1277.812600019388,True,False
17,2,760.0670613999828,circle,"(-480.0, -270.0)",0,1295.034399983706,1295.02190000494,True,False
17,2,760.0835854999896,circle,"(-480.0, -270.0)",0,1311.5584999904968,1311.546000011731,True,False
17,2,760.1021311999939,circle,"(-480.0, -270.0)",0,1330.104199994821,1330.0917000160553,True,False
17,2,760.1158891999803,circle,"(-480.0, -270.0)",0,1343.8621999812312,1343.8497000024654,True,False
17,2,760.134086999984,circle,"(-480.0, -270.0)",0,1362.059999984922,1362.047500006156,True,False
17,2,760.1508114000026,circle,"(-480.0, -270.0)",0,1378.7844000034966,1378.7719000247307,True,False
17,2,760.1679164999805,circle,"(-480.0, -270.0)",0,1395.889499981422,1395.8770000026561,True,False
17,2,760.182642699976,circle,"(-480.0, -270.0)",0,1410.6156999769155,1410.6031999981496,True,False
17,2,760.2001287000021,circle,"(-480.0, -270.0)",0,1428.101700003026,1428.0892000242602,True,False
17,2,760.2158521999954,circle,"(-480.0, -270.0)",0,1443.825199996354,1443.8127000175882,True,False
17,2,760.2337300999789,circle,"(-480.0, -270.0)",0,1461.7030999797862,1461.6906000010204,True,False
17,2,760.2502247999946,circle,"(-480.0, -270.0)",0,1478.1977999955416,1478.1853000167757,True,False
17,2,760.2676041999948,circle,"(-480.0, -270.0)",0,1495.5771999957506,1495.5647000169847,True,False
17,2,760.2832830999978,circle,"(-480.0, -270.0)",0,1511.2560999987181,1511.2436000199523,True,False
17,2,760.3008911999932,circle,"(-480.0, -270.0)",0,1528.864199994132,1528.851700015366,True,False
17,2,760.3163034000027,circle,"(-480.0, -270.0)",0,1544.2764000035822,1544.2639000248164,True,False
17,2,760.3341990999761,circle,"(-480.0, -270.0)",0,1562.1720999770332,1562.1595999982674,True,False
17,2,760.3498065999884,circle,"(-480.0, -270.0)",0,1577.7795999892987,1577.7671000105329,True,False
17,2,760.3675634999818,circle,"(-480.0, -270.0)",0,1595.5364999826998,1595.524000003934,True,False
17,2,760.3828228999919,circle,"(-480.0, -270.0)",0,1610.7958999928087,1610.7834000140429,True,False
17,2,760.4006496999937,circle,"(-480.0, -270.0)",0,1628.6226999945939,1628.610200015828,True,False
17,2,760.4168645000027,circle,"(-480.0, -270.0)",0,1644.8375000036322,1644.8250000248663,True,False
17,2,760.434162199992,circle,"(-480.0, -270.0)",0,1662.1351999929175,1662.1227000141516,True,False
17,2,760.4501026999787,circle,"(-480.0, -270.0)",0,1678.0756999796722,1678.0632000009064,True,False
17,2,760.4684729999863,circle,"(-480.0, -270.0)",0,1696.4459999871906,1696.4335000084247,True,False
17,2,760.4839073999901,circle,"(-480.0, -270.0)",0,1711.8803999910597,1711.8679000122938,True,False
17,2,760.5010039999906,circle,"(-480.0, -270.0)",0,1728.9769999915734,1728.9645000128075,True,False
17,2,760.516690199991,circle,"(-480.0, -270.0)",0,1744.663199991919,1744.6507000131533,True,False
17,2,760.5340204999957,circle,"(-480.0, -270.0)",0,1761.9934999966063,1761.9810000178404,True,False
17,2,760.7152744999912,star,"(-480.0, 270.0)",262.182100006612,1943.2474999921396,1943.2350000133738,False,True
17,3,760.9832057000021,star,"(-480.0, 270.0)",264.3477000237908,2211.1787000030745,267.93120001093484,True,False
17,3,761.0037491999974,star,"(-480.0, 270.0)",0,2231.7221999983303,288.4747000061907,True,False
17,3,761.0226592999825,star,"(-480.0, 270.0)",0,2250.6322999834083,307.38479999126866,True,False
17,3,761.0350259999977,star,"(-480.0, 270.0)",0,2262.998999998672,319.7515000065323,True,False
17,3,761.0496471999795,star,"(-480.0, 270.0)",0,2277.620199980447,334.37269998830743,True,False
17,3,761.0672010999988,star,"(-480.0, 270.0)",0,2295.174099999713,351.92660000757314,True,False
17,3,761.0825720999856,star,"(-480.0, 270.0)",0,2310.5450999864843,367.29759999434464,True,False
17,3,761.1004762999946,star,"(-480.0, 270.0)",0,2328.4492999955546,385.201800003415,True,False
17,3,761.1161167999962,star,"(-480.0, 270.0)",0,2344.089799997164,400.8423000050243,True,False
17,3,761.1338179000013,star,"(-480.0, 270.0)",0,2361.7909000022337,418.54340001009405,True,False
17,3,761.1496635999938,star,"(-480.0, 270.0)",0,2377.63659999473,434.38910000259057,True,False
17,3,761.1667491999979,star,"(-480.0, 270.0)",0,2394.722199998796,451.47470000665635,True,False
17,3,761.1827409999969,star,"(-480.0, 270.0)",0,2410.7139999978244,467.4665000056848,True,False
17,3,761.2000628999958,star,"(-480.0, 270.0)",0,2428.0358999967575,484.78840000461787,True,False
17,3,761.2162930999766,star,"(-480.0, 270.0)",0,2444.26609997754,501.0185999854002,True,False
17,3,761.2332350999932,star,"(-480.0, 270.0)",0,2461.20809999411,517.9606000019703,True,False
17,3,761.2490150999802,star,"(-480.0, 270.0)",0,2476.9880999810994,533.7405999889597,True,False
17,3,761.2674748999998,star,"(-480.0, 270.0)",0,2495.447900000727,552.2004000085872,True,False
17,3,761.269963699975,circle,"(-480.0, -270.0)",264.20489998417906,2497.9366999759804,554.6891999838408,True,False
17,3,761.2866465999978,circle,"(-480.0, -270.0)",0,2514.619599998696,571.3721000065561,True,False
17,3,761.3008300999936,circle,"(-480.0, -270.0)",0,2528.8030999945477,585.555600002408,True,False
17,3,761.3165044999914,circle,"(-480.0, -270.0)",0,2544.477499992354,601.2300000002142,True,False
17,3,761.3330487999774,circle,"(-480.0, -270.0)",0,2561.0217999783345,617.7742999861948,True,False
17,3,761.3490510999982,circle,"(-480.0, -270.0)",0,2577.0240999991074,633.7766000069678,True,False
17,3,761.3666482999979,circle,"(-480.0, -270.0)",0,2594.6212999988347,651.3738000066951,True,False
17,3,761.3826827000012,circle,"(-480.0, -270.0)",0,2610.6557000020985,667.4082000099588,True,False
17,3,761.4002873999998,circle,"(-480.0, -270.0)",0,2628.260400000727,685.0129000085872,True,False
17,3,761.4157847999886,circle,"(-480.0, -270.0)",0,2643.757799989544,700.5102999974042,True,False
17,3,761.4336607999867,circle,"(-480.0, -270.0)",0,2661.6337999876123,718.3862999954727,True,False
17,3,761.4491457999975,circle,"(-480.0, -270.0)",0,2677.118799998425,733.8713000062853,True,False
17,3,761.466469499981,circle,"(-480.0, -270.0)",0,2694.4424999819603,751.1949999898206,True,False
17,3,761.4824833000021,circle,"(-480.0, -270.0)",0,2710.4563000029884,767.2088000108488,True,False
17,3,761.4999931999773,circle,"(-480.0, -270.0)",0,2727.9661999782547,784.7186999861151,True,False
17,3,761.5155057999946,circle,"(-480.0, -270.0)",0,2743.4787999955006,800.231300003361,True,False
17,3,761.5328498999879,circle,"(-480.0, -270.0)",0,2760.8228999888524,817.5753999967128,True,False
17,3,761.549137199996,circle,"(-480.0, -270.0)",0,2777.1101999969687,833.8627000048291,True,False
17,3,761.5669533999753,circle,"(-480.0, -270.0)",0,2794.926399976248,851.6788999841083,True,False
17,3,761.5823736999882,circle,"(-480.0, -270.0)",0,2810.346699989168,867.0991999970283,True,False
17,3,761.6002418999851,circle,"(-480.0, -270.0)",0,2828.214899986051,884.9673999939114,True,False
17,3,761.6024858999881,star,"(-480.0, 270.0)",266.7232000094373,2830.4588999890257,887.211399996886,True,False
17,3,761.61975849999,star,"(-480.0, 270.0)",0,2847.731499990914,904.4839999987744,True,False
17,3,761.6339302999841,star,"(-480.0, 270.0)",0,2861.903299984988,918.6557999928482,True,False
17,3,761.6490683000011,star,"(-480.0, 270.0)",0,2877.04130000202,933.7938000098802,True,False
17,3,761.6668317999865,star,"(-480.0, 270.0)",0,2894.804799987469,951.5572999953292,True,False
17,3,761.6824301999877,star,"(-480.0, 270.0)",0,2910.40319998865,967.1556999965105,True,False
17,3,761.7002560999827,star,"(-480.0, 270.0)",0,2928.2290999835823,984.9815999914426,True,False
17,3,761.7159436999937,star,"(-480.0, 270.0)",0,2943.9166999945883,1000.6692000024486,True,False
17,3,761.7326202999975,star,"(-480.0, 270.0)",0,2960.593299998436,1017.3458000062965,True,False
17,3,761.7491758999822,star,"(-480.0, 270.0)",0,2977.148899983149,1033.9013999910094,True,False
17,3,761.7666127999837,star,"(-480.0, 270.0)",0,2994.585799984634,1051.3382999924943,True,False
17,3,761.7822485999786,star,"(-480.0, 270.0)",0,3010.221599979559,1066.9740999874193,True,False
17,3,761.800133599987,star,"(-480.0, 270.0)",0,3028.10659998795,1084.8590999958105,True,False
17,3,761.8157224000024,star,"(-480.0, 270.0)",0,3043.695400003344,1100.4479000112042,True,False
17,3,761.8333657000039,star,"(-480.0, 270.0)",0,3061.3387000048533,1118.0912000127137,True,False
17,3,761.8531282999902,star,"(-480.0, 270.0)",0,3081.1012999911327,1137.853799998993,True,False
17,3,761.867084700003,star,"(-480.0, 270.0)",0,3095.057700003963,1151.8102000118233,True,False
17,3,761.8825683000032,star,"(-480.0, 270.0)",0,3110.5413000041153,1167.2938000119757,True,False
17,3,761.8998153999855,star,"(-480.0, 270.0)",0,3127.788399986457,1184.5408999943174,True,False
17,3,761.9159572999924,star,"(-480.0, 270.0)",0,3143.9302999933716,1200.682800001232,True,False
17,3,761.933005799976,star,"(-480.0, 270.0)",0,3160.978799976874,1217.7312999847345,True,False
17,3,761.9491190999979,star,"(-480.0, 270.0)",0,3177.092099998845,1233.8446000067052,True,False
17,3,761.9669036999985,star,"(-480.0, 270.0)",0,3194.8766999994405,1251.6292000073008,True,False
17,3,761.9819006999896,star,"(-480.0, 270.0)",0,3209.873699990567,1266.6261999984272,True,False
17,3,762.0003490999807,star,"(-480.0, 270.0)",0,3228.3220999815967,1285.074599989457,True,False
17,3,762.0154401999898,star,"(-480.0, 270.0)",0,3243.413199990755,1300.1656999986153,True,False
17,3,762.0336901999835,star,"(-480.0, 270.0)",0,3261.6631999844685,1318.4156999923289,True,False
17,3,762.048933699989,star,"(-480.0, 270.0)",0,3276.9066999899223,1333.6591999977827,True,False
17,3,762.0674930999812,star,"(-480.0, 270.0)",0,3295.46609998215,1352.2185999900103,True,False
17,3,762.083321699989,star,"(-480.0, 270.0)",0,3311.2946999899577,1368.047199997818,True,False
17,3,762.1002387999906,star,"(-480.0, 270.0)",0,3328.21179999155,1384.9642999994103,True,False
17,3,762.1156754999829,star,"(-480.0, 270.0)",0,3343.6484999838285,1400.4009999916889,True,False
17,3,762.1358148999861,star,"(-480.0, 270.0)",0,3363.7878999870736,1420.540399994934,True,False
17,3,762.149625799997,star,"(-480.0, 270.0)",0,3377.5987999979407,1434.351300005801,True,False
17,3,762.1669109999784,star,"(-480.0, 270.0)",0,3394.8839999793563,1451.6364999872167,True,False
17,3,762.1825523999869,star,"(-480.0, 270.0)",0,3410.5253999878187,1467.277899995679,True,False
17,3,762.1990830999857,star,"(-480.0, 270.0)",0,3427.0560999866575,1483.8085999945179,True,False
17,3,762.2149783999776,star,"(-480.0, 270.0)",0,3442.951399978483,1499.7038999863435,True,False
17,3,762.2327284999774,star,"(-480.0, 270.0)",0,3460.701499978313,1517.4539999861736,True,False
17,3,762.2485068999813,star,"(-480.0, 270.0)",0,3476.4798999822233,1533.2323999900836,True,False
17,3,762.2665477999835,star,"(-480.0, 270.0)",0,3494.520799984457,1551.2732999923173,True,False
17,3,762.2819445999921,star,"(-480.0, 270.0)",0,3509.9175999930594,1566.6701000009198,True,False
17,3,762.2996565999929,star,"(-480.0, 270.0)",0,3527.6295999938156,1584.382100001676,True,False
17,3,762.315216499992,star,"(-480.0, 270.0)",0,3543.1894999928772,1599.9420000007376,True,False
17,3,762.333123599994,star,"(-480.0, 270.0)",0,3561.096599994926,1617.8491000027861,True,False
17,3,762.348951299995,star,"(-480.0, 270.0)",0,3576.9242999958806,1633.676800003741,True,False
17,3,762.3666257000004,star,"(-480.0, 270.0)",0,3594.59870000137,1651.3512000092305,True,False
17,3,762.382219799998,star,"(-480.0, 270.0)",0,3610.192799998913,1666.9453000067733,True,False
17,3,762.4002979999932,star,"(-480.0, 270.0)",0,3628.270999994129,1685.0235000019893,True,False
17,3,762.4149145999982,star,"(-480.0, 270.0)",0,3642.887599999085,1699.6401000069454,True,False
17,3,762.4325813000032,star,"(-480.0, 270.0)",0,3660.5543000041507,1717.306800012011,True,False
17,3,762.4482194999873,star,"(-480.0, 270.0)",0,3676.1924999882467,1732.944999996107,True,False
17,3,762.4660619999922,star,"(-480.0, 270.0)",0,3694.034999993164,1750.7875000010245,True,False
17,3,762.4818353999872,star,"(-480.0, 270.0)",0,3709.8083999881055,1766.5608999959659,True,False
17,3,762.4993346999981,star,"(-480.0, 270.0)",0,3727.3076999990735,1784.0602000069339,True,False
17,3,765.364797199989,circle,"(-480.0, -270.0)",266.5317000064533,6592.7701999899,4649.52269999776,False,True
18,1,774.6668299000012,circle,"(-480.0, -270.0)",0,0.02160001895390451,0.02160001895390451,False,True
18,2,775.4121249000018,circle,"(-480.0, -270.0)",266.5123000042513,745.3166000195779,745.295000000624,True,False
18,2,775.4319092999795,circle,"(-480.0, -270.0)",0,765.1009999972302,765.0793999782763,True,False
18,2,775.4467217999918,circle,"(-480.0, -270.0)",0,779.9135000095703,779.8918999906164,True,False
18,2,775.4620847999759,circle,"(-480.0, -270.0)",0,795.2764999936335,795.2548999746796,True,False
18,2,775.4788144999766,circle,"(-480.0, -270.0)",0,812.0061999943573,811.9845999754034,True,False
18,2,775.4951425000036,circle,"(-480.0, -270.0)",0,828.3342000213452,828.3126000023913,True,False
18,2,775.5118987000023,circle,"(-480.0, -270.0)",0,845.0904000201263,845.0688000011723,True,False
18,2,775.5280328999797,circle,"(-480.0, -270.0)",0,861.224599997513,861.2029999785591,True,False
18,2,775.5455019999936,circle,"(-480.0, -270.0)",0,878.6937000113539,878.6720999924,True,False
18,2,775.561394999997,circle,"(-480.0, -270.0)",0,894.58670001477,894.5650999958161,True,False
18,2,775.5793768999865,circle,"(-480.0, -270.0)",0,912.5686000043061,912.5469999853522,True,False
18,2,775.5958317999903,circle,"(-480.0, -270.0)",0,929.0235000080429,929.001899989089,True,False
18,2,775.6138687999919,circle,"(-480.0, -270.0)",0,947.0605000096839,947.03889999073,True,False
18,2,775.6280331999878,circle,"(-480.0, -270.0)",0,961.2249000056181,961.2032999866642,True,False
18,2,775.6460627999913,circle,"(-480.0, -270.0)",0,979.2545000091195,979.2328999901656,True,False
18,2,775.6635317000037,circle,"(-480.0, -270.0)",0,996.7234000214376,996.7018000024837,True,False
18,2,775.679141999979,circle,"(-480.0, -270.0)",0,1012.333699996816,1012.3120999778621,True,False
18,2,775.6950985000003,circle,"(-480.0, -270.0)",0,1028.2902000180911,1028.2685999991372,True,False
18,2,775.7126676999906,circle,"(-480.0, -270.0)",0,1045.8594000083394,1045.8377999893855,True,False
18,2,775.7282320999948,circle,"(-480.0, -270.0)",0,1061.4238000125624,1061.4021999936085,True,False
18,2,775.7454241999949,circle,"(-480.0, -270.0)",0,1078.6159000126645,1078.5942999937106,True,False
18,2,775.7616390999756,circle,"(-480.0, -270.0)",0,1094.8307999933604,1094.8091999744065,True,False
18,2,775.7785237999924,circle,"(-480.0, -270.0)",0,1111.7155000101775,1111.6938999912236,True,False
18,2,775.7948632999905,circle,"(-480.0, -270.0)",0,1128.0550000083167,1128.0333999893628,True,False
18,2,775.8127054999932,circle,"(-480.0, -270.0)",0,1145.8972000109497,1145.8755999919958,True,False
18,2,775.8277516999806,circle,"(-480.0, -270.0)",0,1160.9433999983594,1160.9217999794055,True,False
18,2,775.8459074999846,circle,"(-480.0, -270.0)",0,1179.0992000023834,1179.0775999834295,True,False
18,2,775.8618484000035,circle,"(-480.0, -270.0)",0,1195.0401000212878,1195.018500002334,True,False
18,2,775.8787496000004,circle,"(-480.0, -270.0)",0,1211.9413000182249,1211.919699999271,True,False
18,2,775.894865899987,circle,"(-480.0, -270.0)",0,1228.0576000048313,1228.0359999858774,True,False
18,2,775.9129509999766,circle,"(-480.0, -270.0)",0,1246.1426999943797,1246.1210999754258,True,False
18,2,775.9281239999982,circle,"(-480.0, -270.0)",0,1261.3157000159845,1261.2940999970306,True,False
18,2,775.945206799981,circle,"(-480.0, -270.0)",0,1278.3984999987297,1278.3768999797758,True,False
18,2,775.9633580999798,circle,"(-480.0, -270.0)",0,1296.5497999975923,1296.5281999786384,True,False
18,2,775.9797723999945,circle,"(-480.0, -270.0)",0,1312.964100012323,1312.942499993369,True,False
18,2,775.995084299997,circle,"(-480.0, -270.0)",0,1328.276000014739,1328.2543999957852,True,False
18,2,776.0140528999909,circle,"(-480.0, -270.0)",0,1347.2446000087075,1347.2229999897536,True,False
18,2,776.0278310999856,circle,"(-480.0, -270.0)",0,1361.0228000034112,1361.0011999844573,True,False
18,2,776.0452853000024,circle,"(-480.0, -270.0)",0,1378.4770000202116,1378.4554000012577,True,False
18,2,776.0610096000019,circle,"(-480.0, -270.0)",0,1394.2013000196312,1394.1797000006773,True,False
18,2,776.0790056999831,circle,"(-480.0, -270.0)",0,1412.1974000008777,1412.1757999819238,True,False
18,2,776.0948707999778,circle,"(-480.0, -270.0)",0,1428.0624999955762,1428.0408999766223,True,False
18,2,776.1117422999814,circle,"(-480.0, -270.0)",0,1444.9339999991935,1444.9123999802396,True,False
18,2,776.128306300001,circle,"(-480.0, -270.0)",0,1461.4980000187643,1461.4763999998104,True,False
18,2,776.1467736999912,circle,"(-480.0, -270.0)",0,1479.9654000089504,1479.9437999899965,True,False
18,2,776.1614446000021,circle,"(-480.0, -270.0)",0,1494.6363000199199,1494.614700000966,True,False
18,2,776.1784916000033,circle,"(-480.0, -270.0)",0,1511.6833000211045,1511.6617000021506,True,False
18,2,776.1949155999755,circle,"(-480.0, -270.0)",0,1528.1072999932803,1528.0856999743264,True,False
18,2,776.2119854999764,circle,"(-480.0, -270.0)",0,1545.1771999942139,1545.15559997526,True,False
18,2,776.2286155999755,circle,"(-480.0, -270.0)",0,1561.8072999932338,1561.7856999742799,True,False
18,2,776.2450635999849,circle,"(-480.0, -270.0)",0,1578.2553000026383,1578.2336999836843,True,False
18,2,776.2616365999856,circle,"(-480.0, -270.0)",0,1594.828300003428,1594.806699984474,True,False
18,2,776.2794825999881,circle,"(-480.0, -270.0)",0,1612.6743000058923,1612.6526999869384,True,False
18,2,776.2943543999863,circle,"(-480.0, -270.0)",0,1627.5461000041105,1627.5244999851566,True,False
18,2,776.3113116000022,circle,"(-480.0, -270.0)",0,1644.5033000200056,1644.4817000010516,True,False
18,2,776.3282124999969,circle,"(-480.0, -270.0)",0,1661.4042000146583,1661.3825999957044,True,False
18,2,776.3452530999784,circle,"(-480.0, -270.0)",0,1678.444799996214,1678.42319997726,True,False
18,2,776.3614925000002,circle,"(-480.0, -270.0)",0,1694.6842000179458,1694.662599998992,True,False
18,2,776.3784340999846,circle,"(-480.0, -270.0)",0,1711.6258000023663,1711.6041999834124,True,False
18,2,776.3949070999806,circle,"(-480.0, -270.0)",0,1728.0987999984063,1728.0771999794524,True,False
18,2,776.4129011000041,circle,"(-480.0, -270.0)",0,1746.09280002187,1746.0712000029162,True,False
18,2,776.4281199999969,circle,"(-480.0, -270.0)",0,1761.3117000146303,1761.2900999956764,True,False
18,2,776.4522875999974,circle,"(-480.0, -270.0)",0,1785.4793000151403,1785.4576999961864,True,False
19,1,788.742214799975,circle,"(-480.0, -270.0)",0,0.012199976481497288,0.012199976481497288,False,True
19,2,789.0073434999795,cross,"(480.0, -270.0)",262.12519998080097,265.1408999809064,265.1287000044249,True,False
19,2,789.0274634999805,cross,"(480.0, -270.0)",0,285.2608999819495,285.248700005468,True,False
19,2,789.0409338999889,cross,"(480.0, -270.0)",0,298.73129999032244,298.71910001384094,True,False
19,2,789.0576997000026,cross,"(480.0, -270.0)",0,315.497100003995,315.4849000275135,True,False
19,2,789.0732977000007,cross,"(480.0, -270.0)",0,331.0951000021305,331.082900025649,True,False
19,2,789.0910415999824,cross,"(480.0, -270.0)",0,348.8389999838546,348.8268000073731,True,False
19,2,789.1065797999909,cross,"(480.0, -270.0)",0,364.37719999230467,364.36500001582317,True,False
19,2,789.1245158999809,cross,"(480.0, -270.0)",0,382.31329998234287,382.3011000058614,True,False
19,2,789.1404076000035,cross,"(480.0, -270.0)",0,398.20500000496395,398.19280002848245,True,False
19,2,789.1578145999811,cross,"(480.0, -270.0)",0,415.6119999825023,415.5998000060208,True,False
19,2,789.1736106000026,cross,"(480.0, -270.0)",0,431.40800000401214,431.39580002753064,True,False
19,2,789.1913091999886,cross,"(480.0, -270.0)",0,449.10659999004565,449.09440001356415,True,False
19,2,789.2070653999981,cross,"(480.0, -270.0)",0,464.86279999953695,464.85060002305545,True,False
19,2,789.2245058999979,cross,"(480.0, -270.0)",0,482.3032999993302,482.2911000228487,True,False
19,2,789.239436599979,cross,"(480.0, -270.0)",0,497.23399998038076,497.22180000389926,True,False
19,2,789.257697699999,cross,"(480.0, -270.0)",0,515.4951000004075,515.482900023926,True,False
19,2,789.2736329999752,cross,"(480.0, -270.0)",0,531.4303999766707,531.4182000001892,True,False
19,2,789.2911107999971,cross,"(480.0, -270.0)",0,548.9081999985501,548.8960000220686,True,False
19,2,789.3068454999884,cross,"(480.0, -270.0)",0,564.642899989849,564.6307000133675,True,False
19,2,789.3242937999894,cross,"(480.0, -270.0)",0,582.0911999908276,582.0790000143461,True,False
19,2,789.3260501000041,circle,"(-480.0, -270.0)",266.63850000477396,583.8475000055041,583.8353000290226,True,False
19,2,789.3428657999902,circle,"(-480.0, -270.0)",0,600.6631999916863,600.6510000152048,True,False
19,2,789.3577256999852,circle,"(-480.0, -270.0)",0,615.5230999866035,615.510900010122,True,False
19,2,789.3736537999939,circle,"(-480.0, -270.0)",0,631.4511999953538,631.4390000188723,True,False
19,2,789.3907580999949,circle,"(-480.0, -270.0)",0,648.5554999962915,648.54330001981,True,False
19,2,789.4070168999897,circle,"(-480.0, -270.0)",0,664.8142999911215,664.80210001464,True,False
19,2,789.424497400003,circle,"(-480.0, -270.0)",0,682.2948000044562,682.2826000279747,True,False
19,2,789.4406842000026,circle,"(-480.0, -270.0)",0,698.4816000040155,698.469400027534,True,False
19,2,789.4577040000004,circle,"(-480.0, -270.0)",0,715.5014000018127,715.4892000253312,True,False
19,2,789.473149700003,circle,"(-480.0, -270.0)",0,730.9471000044141,730.9349000279326,True,False
19,2,789.4912026999809,circle,"(-480.0, -270.0)",0,749.0000999823678,748.9879000058863,True,False
19,2,789.5059023999784,circle,"(-480.0, -270.0)",0,763.6997999798041,763.6876000033226,True,False
19,2,789.524018600001,circle,"(-480.0, -270.0)",0,781.8160000024363,781.8038000259548,True,False
19,2,789.540013299993,circle,"(-480.0, -270.0)",0,797.810699994443,797.7985000179615,True,False
19,2,789.5576141999918,circle,"(-480.0, -270.0)",0,815.4115999932401,815.3994000167586,True,False
19,2,789.5733337999845,circle,"(-480.0, -270.0)",0,831.1311999859754,831.1190000094939,True,False
19,2,789.5907539999753,circle,"(-480.0, -270.0)",0,848.5513999767136,848.5392000002321,True,False
19,2,789.6064612999908,circle,"(-480.0, -270.0)",0,864.258699992206,864.2465000157245,True,False
19,2,789.6242274999968,circle,"(-480.0, -270.0)",0,882.0248999982141,882.0127000217326,True,False
19,2,789.6407106999832,circle,"(-480.0, -270.0)",0,898.5080999846105,898.495900008129,True,False
19,2,789.6577347999846,circle,"(-480.0, -270.0)",0,915.5321999860462,915.5200000095647,True,False
19,2,789.67384209999,circle,"(-480.0, -270.0)",0,931.6394999914337,931.6273000149522,True,False
19,2,789.6911231999984,circle,"(-480.0, -270.0)",0,948.9205999998376,948.9084000233561,True,False
19,2,789.7070706999802,circle,"(-480.0, -270.0)",0,964.8680999816861,964.8559000052046,True,False
19,2,789.7240872999828,circle,"(-480.0, -270.0)",0,981.8846999842208,981.8725000077393,True,False
19,2,789.7401374999899,circle,"(-480.0, -270.0)",0,997.9348999913782,997.9227000148967,True,False
19,2,789.7572206000041,circle,"(-480.0, -270.0)",0,1015.0180000055116,1015.0058000290301,True,False
19,2,789.7737225999881,circle,"(-480.0, -270.0)",0,1031.5199999895412,1031.5078000130598,True,False
19,2,789.7912055999914,circle,"(-480.0, -270.0)",0,1049.0029999928083,1048.9908000163268,True,False
19,2,789.8062031999871,circle,"(-480.0, -270.0)",0,1064.0005999885034,1063.9884000120219,True,False
19,2,789.8244467999903,circle,"(-480.0, -270.0)",0,1082.2441999916919,1082.2320000152104,True,False
19,2,789.8405404999794,circle,"(-480.0, -270.0)",0,1098.3378999808338,1098.3257000043523,True,False
19,2,789.8577206999762,circle,"(-480.0, -270.0)",0,1115.5180999776348,1115.5059000011533,True,False
19,2,789.8733698999858,circle,"(-480.0, -270.0)",0,1131.1672999872826,1131.155100010801,True,False
19,2,789.8910204999847,circle,"(-480.0, -270.0)",0,1148.8178999861702,1148.8057000096887,True,False
19,2,789.9067795999872,circle,"(-480.0, -270.0)",0,1164.5769999886397,1164.5648000121582,True,False
19,2,789.9241329999932,circle,"(-480.0, -270.0)",0,1181.9303999945987,1181.9182000181172,True,False
19,2,789.9402930999931,circle,"(-480.0, -270.0)",0,1198.0904999945778,1198.0783000180963,True,False
19,2,789.9578598999942,circle,"(-480.0, -270.0)",0,1215.6572999956552,1215.6451000191737,True,False
19,2,789.972592199978,circle,"(-480.0, -270.0)",0,1230.3895999793895,1230.377400002908,True,False
19,2,789.9909009999828,circle,"(-480.0, -270.0)",0,1248.6983999842778,1248.6862000077963,True,False
19,2,790.0076202999917,circle,"(-480.0, -270.0)",0,1265.4176999931224,1265.4055000166409,True,False
19,2,790.024191799981,circle,"(-480.0, -270.0)",0,1281.9891999824904,1281.977000006009,True,False
19,2,790.0395978000015,circle,"(-480.0, -270.0)",0,1297.3952000029385,1297.383000026457,True,False
19,2,790.0573530999827,circle,"(-480.0, -270.0)",0,1315.1504999841563,1315.1383000076748,True,False
19,2,790.0728642999893,circle,"(-480.0, -270.0)",0,1330.661699990742,1330.6495000142604,True,False
19,2,790.0905679999851,circle,"(-480.0, -270.0)",0,1348.3653999865055,1348.353200010024,True,False
19,2,790.1068299999752,circle,"(-480.0, -270.0)",0,1364.627399976598,1364.6152000001166,True,False
19,2,790.1244626999833,circle,"(-480.0, -270.0)",0,1382.2600999847054,1382.247900008224,True,False
19,2,790.126210699993,star,"(-480.0, 270.0)",266.7608000047039,1384.0080999943893,1383.9959000179078,True,False
19,2,790.1426748999802,star,"(-480.0, 270.0)",0,1400.4722999816295,1400.460100005148,True,False
19,2,790.1580208999803,star,"(-480.0, 270.0)",0,1415.8182999817654,1415.806100005284,True,False
19,2,790.1735094999894,star,"(-480.0, 270.0)",0,1431.3068999908864,1431.294700014405,True,False
19,2,790.1908849999891,star,"(-480.0, 270.0)",0,1448.6823999905027,1448.6702000140212,True,False
19,2,790.2060126999859,star,"(-480.0, 270.0)",0,1463.8100999873132,1463.7979000108317,True,False
19,2,790.2238911000022,star,"(-480.0, 270.0)",0,1481.6885000036564,1481.6763000271749,True,False
19,2,790.2395847000007,star,"(-480.0, 270.0)",0,1497.3821000021417,1497.3699000256602,True,False
19,2,790.2570884999877,star,"(-480.0, 270.0)",0,1514.8858999891672,1514.8737000126857,True,False
19,2,790.2729106999759,star,"(-480.0, 270.0)",0,1530.7080999773461,1530.6959000008646,True,False
19,2,790.2904672999866,star,"(-480.0, 270.0)",0,1548.2646999880672,1548.2525000115857,True,False
19,2,790.3067951999838,star,"(-480.0, 270.0)",0,1564.5925999851897,1564.5804000087082,True,False
19,2,790.3240148999903,star,"(-480.0, 270.0)",0,1581.812299991725,1581.8001000152435,True,False
19,2,790.3402241999866,star,"(-480.0, 270.0)",0,1598.0215999879874,1598.009400011506,True,False
19,2,790.3572184999939,star,"(-480.0, 270.0)",0,1615.015899995342,1615.0037000188604,True,False
19,2,790.3732229000016,star,"(-480.0, 270.0)",0,1631.0203000030015,1631.00810002652,True,False
19,2,790.391020399984,star,"(-480.0, 270.0)",0,1648.8177999854088,1648.8056000089273,True,False
19,2,790.4063491999987,star,"(-480.0, 270.0)",0,1664.1466000000946,1664.1344000236131,True,False
19,2,790.4240037999989,star,"(-480.0, 270.0)",0,1681.8012000003364,1681.789000023855,True,False
19,2,790.4396797999798,star,"(-480.0, 270.0)",0,1697.477199981222,1697.4650000047404,True,False
19,2,790.4572426999803,star,"(-480.0, 270.0)",0,1715.0400999817066,1715.027900005225,True,False
19,2,790.4728840999887,star,"(-480.0, 270.0)",0,1730.681499990169,1730.6693000136875,True,False
19,2,790.4907735000015,star,"(-480.0, 270.0)",0,1748.5709000029601,1748.5587000264786,True,False
19,2,790.50576,star,"(-480.0, 270.0)",0,1763.5574000014458,1763.5452000249643,True,False
19,2,790.5240454000013,star,"(-480.0, 270.0)",0,1781.842800002778,1781.8306000262965,True,False
19,2,790.5259298000019,star,"(-480.0, 270.0)",381.26069999998435,1783.7272000033408,1783.7150000268593,False,True
19,3,790.8060349999869,star,"(-480.0, 270.0)",263.23509999201633,2063.832399988314,280.1051999849733,True,False
19,3,790.8276520999789,star,"(-480.0, 270.0)",0,2085.4494999803137,301.72229997697286,True,False
19,3,790.8404689999879,star,"(-480.0, 270.0)",0,2098.2663999893703,314.5391999860294,True,False
19,3,790.85678989999,star,"(-480.0, 270.0)",0,2114.587299991399,330.8600999880582,True,False
19,3,790.872709999996,star,"(-480.0, 270.0)",0,2130.507399997441,346.78019999410026,True,False
19,3,790.8904916000029,star,"(-480.0, 270.0)",0,2148.289000004297,364.5618000009563,True,False
19,3,790.9060247000016,star,"(-480.0, 270.0)",0,2163.822100003017,380.0948999996763,True,False
19,3,790.9236655999848,star,"(-480.0, 270.0)",0,2181.462999986252,397.735799982911,True,False
19,3,790.9396913999808,star,"(-480.0, 270.0)",0,2197.4887999822386,413.7615999788977,True,False
19,3,790.9570683999918,star,"(-480.0, 270.0)",0,2214.8657999932766,431.13859998993576,True,False
19,3,790.9726948000025,star,"(-480.0, 270.0)",0,2230.492200003937,446.76500000059605,True,False
19,3,790.9907819999789,star,"(-480.0, 270.0)",0,2248.579399980372,464.852199977031,True,False
19,3,791.0063212999958,star,"(-480.0, 270.0)",0,2264.118699997198,480.391499993857,True,False
19,3,791.0236346999882,star,"(-480.0, 270.0)",0,2281.4320999896154,497.70489998627454,True,False
19,3,791.0389146999805,star,"(-480.0, 270.0)",0,2296.71209998196,512.9848999786191,True,False
19,3,791.0563256999885,star,"(-480.0, 270.0)",0,2314.1230999899562,530.3958999866154,True,False
19,3,791.0723524999921,star,"(-480.0, 270.0)",0,2330.1498999935575,546.4226999902166,True,False
19,3,791.0901511999837,star,"(-480.0, 270.0)",0,2347.948599985102,564.2213999817614,True,False
19,3,791.1058252999792,star,"(-480.0, 270.0)",0,2363.622699980624,579.8954999772832,True,False
19,3,791.1233931999886,star,"(-480.0, 270.0)",0,2381.1905999900773,597.4633999867365,True,False
19,3,791.1395102999813,star,"(-480.0, 270.0)",0,2397.3076999827754,613.5804999794345,True,False
19,3,791.1566981999786,star,"(-480.0, 270.0)",0,2414.4955999800004,630.7683999766596,True,False
19,3,791.1727637999866,star,"(-480.0, 270.0)",0,2430.5611999880057,646.8339999846648,True,False
19,3,791.1909158999915,star,"(-480.0, 270.0)",0,2448.71329999296,664.9860999896191,True,False
19,3,791.2060702999879,star,"(-480.0, 270.0)",0,2463.8676999893505,680.1404999860097,True,False
19,3,791.2245906000026,star,"(-480.0, 270.0)",0,2482.3880000039935,698.6608000006527,True,False
19,3,791.2400958999933,star,"(-480.0, 270.0)",0,2497.8932999947574,714.1660999914166,True,False
19,3,791.2565802999889,star,"(-480.0, 270.0)",0,2514.377699990291,730.6504999869503,True,False
19,3,791.2726126999769,star,"(-480.0, 270.0)",0,2530.410099978326,746.682899974985,True,False
19,3,791.2898493999965,star,"(-480.0, 270.0)",0,2547.6467999978922,763.9195999945514,True,False
19,3,791.3060602999758,star,"(-480.0, 270.0)",0,2563.857699977234,780.1304999738932,True,False
19,3,791.3233651999908,star,"(-480.0, 270.0)",0,2581.16259999224,797.435399988899,True,False
19,3,791.3395285999868,star,"(-480.0, 270.0)",0,2597.325999988243,813.5987999849021,True,False
19,3,791.3567986999988,star,"(-480.0, 270.0)",0,2614.596100000199,830.8688999968581,True,False
19,3,791.372736099991,star,"(-480.0, 270.0)",0,2630.5334999924526,846.8062999891117,True,False
19,3,791.3901211999764,star,"(-480.0, 270.0)",0,2647.9185999778565,864.1913999745157,True,False
19,3,791.4058991999773,star,"(-480.0, 270.0)",0,2663.6965999787208,879.9693999753799,True,False
19,3,791.4235699999845,star,"(-480.0, 270.0)",0,2681.367399985902,897.6401999825612,True,False
19,3,791.4392077999946,star,"(-480.0, 270.0)",0,2697.005199996056,913.2779999927152,True,False
19,3,791.4565013999818,star,"(-480.0, 270.0)",0,2714.2987999832258,930.5715999798849,True,False
19,3,791.4726445999986,star,"(-480.0, 270.0)",0,2730.442000000039,946.7147999966983,True,False
19,3,791.4905911999813,star,"(-480.0, 270.0)",0,2748.388599982718,964.6613999793772,True,False
19,3,791.506261100003,star,"(-480.0, 270.0)",0,2764.0585000044666,980.3313000011258,True,False
19,3,791.5233181999938,star,"(-480.0, 270.0)",0,2781.115599995246,997.3883999919053,True,False
19,3,791.5390681999852,star,"(-480.0, 270.0)",0,2796.8655999866314,1013.1383999832906,True,False
19,3,791.5561883999908,star,"(-480.0, 270.0)",0,2813.985799992224,1030.2585999888834,True,False
19,3,791.572374499985,star,"(-480.0, 270.0)",0,2830.1718999864534,1046.4446999831125,True,False
19,3,791.5900446999876,star,"(-480.0, 270.0)",0,2847.842099989066,1064.114899985725,True,False
19,3,791.6057732999907,star,"(-480.0, 270.0)",0,2863.570699992124,1079.8434999887832,True,False
19,3,791.62320859998,star,"(-480.0, 270.0)",0,2881.0059999814257,1097.2787999780849,True,False
19,3,791.6392210999911,star,"(-480.0, 270.0)",0,2897.018499992555,1113.2912999892142,True,False
19,3,791.6563186999992,star,"(-480.0, 270.0)",0,2914.116100000683,1130.3888999973424,True,False
19,3,791.6725652999885,star,"(-480.0, 270.0)",0,2930.362699989928,1146.635499986587,True,False
19,3,791.6902917999832,star,"(-480.0, 270.0)",0,2948.089199984679,1164.3619999813382,True,False
19,3,791.7060701999872,star,"(-480.0, 270.0)",0,2963.867599988589,1180.1403999852482,True,False
19,3,791.7235522999836,star,"(-480.0, 270.0)",0,2981.349699985003,1197.6224999816623,True,False
19,3,791.7391856999893,star,"(-480.0, 270.0)",0,2996.983099990757,1213.2558999874163,True,False
19,3,791.7559957999911,star,"(-480.0, 270.0)",0,3013.793199992506,1230.065999989165,True,False
19,3,791.7722878999775,star,"(-480.0, 270.0)",0,3030.085299978964,1246.3580999756232,True,False
19,3,791.7899122999806,star,"(-480.0, 270.0)",0,3047.7096999820787,1263.982499978738,True,False
19,3,791.8057527999918,star,"(-480.0, 270.0)",0,3063.5501999931876,1279.8229999898467,True,False
19,3,791.8233067999827,star,"(-480.0, 270.0)",0,3081.104199984111,1297.37699998077,True,False
19,3,791.8393153999932,star,"(-480.0, 270.0)",0,3097.1127999946475,1313.3855999913067,True,False
19,3,791.8563269999868,star,"(-480.0, 270.0)",0,3114.1243999882136,1330.3971999848727,True,False
19,3,791.8725609999965,star,"(-480.0, 270.0)",0,3130.358399997931,1346.6311999945901,True,False
19,3,791.8901890999987,star,"(-480.0, 270.0)",0,3147.9865000001155,1364.2592999967746,True,False
19,3,791.908540799981,star,"(-480.0, 270.0)",0,3166.3381999824196,1382.6109999790788,True,False
19,3,791.9240075999987,star,"(-480.0, 270.0)",0,3181.8050000001676,1398.0777999968268,True,False
19,3,791.9397916999878,star,"(-480.0, 270.0)",0,3197.5890999892727,1413.8618999859318,True,False
19,3,791.9566491000005,star,"(-480.0, 270.0)",0,3214.446500001941,1430.7192999986,True,False
19,3,791.9724551999825,star,"(-480.0, 270.0)",0,3230.2525999839418,1446.525399980601,True,False
19,3,791.990573099989,star,"(-480.0, 270.0)",0,3248.370499990415,1464.643299987074,True,False
19,3,792.0060882999969,star,"(-480.0, 270.0)",0,3263.8856999983545,1480.1584999950137,True,False
19,3,792.0233496000001,star,"(-480.0, 270.0)",0,3281.1470000015106,1497.4197999981698,True,False
19,3,792.0395081999886,star,"(-480.0, 270.0)",0,3297.305599990068,1513.5783999867272,True,False
19,3,792.0570564999944,star,"(-480.0, 270.0)",0,3314.8538999957964,1531.1266999924555,True,False
19,3,792.0723307000007,star,"(-480.0, 270.0)",0,3330.1281000021845,1546.4008999988437,True,False
19,3,792.0904339999834,star,"(-480.0, 270.0)",0,3348.2313999847975,1564.5041999814566,True,False
19,3,792.1059255999862,star,"(-480.0, 270.0)",0,3363.722999987658,1579.9957999843173,True,False
19,3,792.1233754999994,star,"(-480.0, 270.0)",0,3381.17290000082,1597.445699997479,True,False
19,3,792.1392878999759,star,"(-480.0, 270.0)",0,3397.085299977334,1613.3580999739934,True,False
19,3,792.1563333999948,star,"(-480.0, 270.0)",0,3414.130799996201,1630.40359999286,True,False
19,3,792.172468099976,star,"(-480.0, 270.0)",0,3430.265499977395,1646.538299974054,True,False
19,3,792.1899048999767,star,"(-480.0, 270.0)",0,3447.7022999781184,1663.9750999747775,True,False
19,3,792.2059333999932,star,"(-480.0, 270.0)",0,3463.7307999946643,1680.0035999913234,True,False
19,3,792.2232365999953,star,"(-480.0, 270.0)",0,3481.0339999967255,1697.3067999933846,True,False
19,3,792.2393766999885,star,"(-480.0, 270.0)",0,3497.174099989934,1713.446899986593,True,False
19,3,792.2567500000005,star,"(-480.0, 270.0)",0,3514.547400001902,1730.8201999985613,True,False
19,3,792.2728272999811,star,"(-480.0, 270.0)",0,3530.6246999825817,1746.8974999792408,True,False
19,3,792.2901317999931,star,"(-480.0, 270.0)",0,3547.9291999945417,1764.2019999912009,True,False
19,3,792.3055618999933,star,"(-480.0, 270.0)",0,3563.3592999947723,1779.6320999914315,True,False
19,3,792.322961799975,star,"(-480.0, 270.0)",0,3580.7591999764554,1797.0319999731146,True,False
19,3,793.023070700001,circle,"(-480.0, -270.0)",250.93639999977313,4280.868100002408,2497.140899999067,False,True
19,4,795.8890741999785,star,"(-480.0, 270.0)",250.68359999568202,7146.8715999799315,2866.0034999775235,False,True
