trial_num,selection_num,timestamp,shape,position,fixation_duration_ms,rt_from_trial_start_ms,rt_from_previous_selection_ms,queued_selection,was_executed
13,1,1044.792908899999,circle,"(-480.0, -270.0)",0,0.017700000171316788,0.017700000171316788,False,True
13,2,1045.6404201000005,circle,"(-480.0, -270.0)",250.02569999924162,847.5289000016346,847.5112000014633,True,False
13,2,1045.6591970000009,circle,"(-480.0, -270.0)",0,866.3058000020101,866.2881000018388,True,False
13,2,1045.6736210999989,circle,"(-480.0, -270.0)",0,880.7299000000057,880.7121999998344,True,False
13,2,1045.6903026,circle,"(-480.0, -270.0)",0,897.4114000011468,897.3937000009755,True,False
13,2,1045.706768,circle,"(-480.0, -270.0)",0,913.8768000011623,913.859100000991,True,False
13,2,1045.7231892000018,circle,"(-480.0, -270.0)",0,930.2980000029493,930.280300002778,True,False
13,2,1045.7401019999998,circle,"(-480.0, -270.0)",0,947.210800000903,947.1931000007316,True,False
13,2,1045.7569541999983,circle,"(-480.0, -270.0)",0,964.0629999994417,964.0452999992704,True,False
13,2,1045.7737555999993,circle,"(-480.0, -270.0)",0,980.8644000004278,980.8467000002565,True,False
13,2,1045.7908085999989,circle,"(-480.0, -270.0)",0,997.9174000000057,997.8996999998344,True,False
13,2,1045.8070783000003,circle,"(-480.0, -270.0)",0,1014.1871000014362,1014.1694000012649,True,False
13,2,1045.8237292999984,circle,"(-480.0, -270.0)",0,1030.838099999528,1030.8203999993566,True,False
13,2,1045.8404058000015,circle,"(-480.0, -270.0)",0,1047.5146000026143,1047.496900002443,True,False
13,2,1045.8574034999983,circle,"(-480.0, -270.0)",0,1064.5122999994783,1064.494599999307,True,False
13,2,1045.8734886999991,circle,"(-480.0, -270.0)",0,1080.5975000002945,1080.5798000001232,True,False
13,2,1045.8901905999992,circle,"(-480.0, -270.0)",0,1097.2994000003382,1097.281700000167,True,False
13,2,1045.9071202000014,circle,"(-480.0, -270.0)",0,1114.2290000025241,1114.2113000023528,True,False
13,2,1045.9233190000014,circle,"(-480.0, -270.0)",0,1130.4278000025079,1130.4101000023365,True,False
13,2,1045.9399163000016,circle,"(-480.0, -270.0)",0,1147.025100002793,1147.0074000026216,True,False
13,2,1045.9570114999988,circle,"(-480.0, -270.0)",0,1164.1202999999223,1164.102599999751,True,False
13,2,1045.9730368000019,circle,"(-480.0, -270.0)",0,1180.1456000030157,1180.1279000028444,True,False
13,2,1045.9902277,circle,"(-480.0, -270.0)",0,1197.3365000012564,1197.318800001085,True,False
13,2,1046.006968400001,circle,"(-480.0, -270.0)",0,1214.077200002066,1214.0595000018948,True,False
13,2,1046.0236861999983,circle,"(-480.0, -270.0)",0,1230.794999999489,1230.7772999993176,True,False
13,2,1046.0404471000002,circle,"(-480.0, -270.0)",0,1247.5559000013163,1247.538200001145,True,False
13,2,1046.056923600001,circle,"(-480.0, -270.0)",0,1264.0324000021792,1264.0147000020079,True,False
13,2,1046.0736023999998,circle,"(-480.0, -270.0)",0,1280.711200000951,1280.6935000007797,True,False
13,2,1046.0904082999987,circle,"(-480.0, -270.0)",0,1297.5170999998227,1297.4993999996514,True,False
13,2,1046.1069156000012,circle,"(-480.0, -270.0)",0,1314.0244000023813,1314.00670000221,True,False
13,2,1046.1235256,circle,"(-480.0, -270.0)",0,1330.634400001145,1330.6167000009737,True,False
13,2,1046.1403683999997,circle,"(-480.0, -270.0)",0,1347.477200000867,1347.4595000006957,True,False
13,2,1046.1570558999992,circle,"(-480.0, -270.0)",0,1364.1647000004014,1364.14700000023,True,False
13,2,1046.1734242999992,circle,"(-480.0, -270.0)",0,1380.5331000003207,1380.5154000001494,True,False
13,2,1046.1900755999995,circle,"(-480.0, -270.0)",0,1397.1844000006968,1397.1667000005255,True,False
13,2,1046.2063750999987,circle,"(-480.0, -270.0)",0,1413.4838999998465,1413.4661999996752,True,False
13,2,1046.2228266999991,circle,"(-480.0, -270.0)",0,1429.9355000002834,1429.917800000112,True,False
13,2,1046.2400001999995,circle,"(-480.0, -270.0)",0,1447.109000000637,1447.0913000004657,True,False
13,2,1046.2566248000003,circle,"(-480.0, -270.0)",0,1463.733600001433,1463.7159000012616,True,False
13,2,1046.2733767999998,circle,"(-480.0, -270.0)",0,1480.485600000975,1480.4679000008036,True,False
13,2,1046.2899337999988,circle,"(-480.0, -270.0)",0,1497.0425999999861,1497.0248999998148,True,False
13,2,1046.3070627000016,circle,"(-480.0, -270.0)",0,1514.1715000027034,1514.153800002532,True,False
13,2,1046.3234602999983,circle,"(-480.0, -270.0)",0,1530.5690999994113,1530.55139999924,True,False
13,2,1046.3401144000018,circle,"(-480.0, -270.0)",0,1547.223200002918,1547.2055000027467,True,False
13,2,1046.3567698000006,circle,"(-480.0, -270.0)",0,1563.8786000017717,1563.8609000016004,True,False
13,2,1046.3733892000018,circle,"(-480.0, -270.0)",0,1580.49800000299,1580.4803000028187,True,False
13,2,1046.3900386999994,circle,"(-480.0, -270.0)",0,1597.147500000574,1597.1298000004026,True,False
13,2,1046.4066725999983,circle,"(-480.0, -270.0)",0,1613.781399999425,1613.7636999992537,True,False
13,2,1046.4233042999986,circle,"(-480.0, -270.0)",0,1630.4130999997142,1630.3953999995429,True,False
13,2,1046.4400013000013,circle,"(-480.0, -270.0)",0,1647.1101000024646,1647.0924000022933,True,False
13,2,1046.4561996000011,circle,"(-480.0, -270.0)",0,1663.308400002279,1663.2907000021078,True,False
13,2,1046.4730382000016,circle,"(-480.0, -270.0)",0,1680.147000002762,1680.1293000025908,True,False
13,2,1046.4898942,circle,"(-480.0, -270.0)",0,1697.003000001132,1696.9853000009607,True,False
13,2,1046.5066592000003,circle,"(-480.0, -270.0)",0,1713.768000001437,1713.7503000012657,True,False
13,2,1046.5232644999996,circle,"(-480.0, -270.0)",0,1730.3733000007924,1730.355600000621,True,False
13,2,1046.5398462999983,circle,"(-480.0, -270.0)",0,1746.955099999468,1746.9373999992968,True,False
13,2,1046.5567115000013,circle,"(-480.0, -270.0)",0,1763.8203000024077,1763.8026000022364,True,False
13,2,1046.5734956999986,circle,"(-480.0, -270.0)",0,1780.604499999754,1780.5867999995826,True,False
13,2,1047.6060762999987,star,"(-480.0, 270.0)",266.51809999748366,2813.185099999828,2813.1673999996565,False,True
13,3,1047.8729571000003,star,"(-480.0, 270.0)",263.76629999867873,3080.0659000015003,266.88080000167247,True,False
13,3,1047.8925674999991,star,"(-480.0, 270.0)",0,3099.676300000283,286.49120000045514,True,False
13,3,1047.9058202999986,star,"(-480.0, 270.0)",0,3112.9290999997465,299.74399999991874,True,False
13,3,1047.9223697999987,star,"(-480.0, 270.0)",0,3129.4785999998567,316.29350000002887,True,False
13,3,1047.9394423999984,star,"(-480.0, 270.0)",0,3146.5511999995215,333.3660999996937,True,False
13,3,1047.9554355,star,"(-480.0, 270.0)",0,3162.544300001173,349.359200001345,True,False
13,3,1047.9723539000006,star,"(-480.0, 270.0)",0,3179.46270000175,366.2776000019221,True,False
13,3,1047.9890988000006,star,"(-480.0, 270.0)",0,3196.2076000017987,383.0225000019709,True,False
13,3,1048.0057897000006,star,"(-480.0, 270.0)",0,3212.8985000017565,399.7134000019287,True,False
13,3,1048.0225395999987,star,"(-480.0, 270.0)",0,3229.64839999986,416.4633000000322,True,False
13,3,1048.0395878000018,star,"(-480.0, 270.0)",0,3246.696600002906,433.51150000307825,True,False
13,3,1048.0558492000018,star,"(-480.0, 270.0)",0,3262.958000002982,449.77290000315406,True,False
13,3,1048.0729696000017,star,"(-480.0, 270.0)",0,3280.0784000028216,466.8933000029938,True,False
13,3,1048.0896229999998,star,"(-480.0, 270.0)",0,3296.731800000998,483.5467000011704,True,False
13,3,1048.1062989999991,star,"(-480.0, 270.0)",0,3313.4078000002773,500.22270000044955,True,False
13,3,1048.1227182000002,star,"(-480.0, 270.0)",0,3329.827000001387,516.6419000015594,True,False
13,3,1048.1393639000016,star,"(-480.0, 270.0)",0,3346.472700002778,533.2876000029501,True,False
13,3,1048.1559175000002,star,"(-480.0, 270.0)",0,3363.0263000013656,549.8412000015378,True,False
13,3,1048.172921199999,star,"(-480.0, 270.0)",0,3380.0300000002608,566.844900000433,True,False
13,3,1048.1894140000004,star,"(-480.0, 270.0)",0,3396.5228000015486,583.3377000017208,True,False
13,3,1048.2056850000008,star,"(-480.0, 270.0)",0,3412.793800001964,599.6087000021362,True,False
13,3,1048.2227367999985,star,"(-480.0, 270.0)",0,3429.8455999996804,616.6604999998526,True,False
13,3,1048.238949999999,star,"(-480.0, 270.0)",0,3446.0588000001735,632.8737000003457,True,False
13,3,1048.2560028000007,star,"(-480.0, 270.0)",0,3463.1116000018665,649.9265000020387,True,False
13,3,1048.2728411999997,star,"(-480.0, 270.0)",0,3479.9500000008265,666.7649000009988,True,False
13,3,1048.2894875999991,star,"(-480.0, 270.0)",0,3496.5964000002714,683.4113000004436,True,False
13,3,1048.3060837999983,star,"(-480.0, 270.0)",0,3513.1925999994564,700.0074999996286,True,False
13,3,1048.3226969999996,star,"(-480.0, 270.0)",0,3529.8058000007586,716.6207000009308,True,False
13,3,1048.3401692000007,star,"(-480.0, 270.0)",0,3547.2780000018247,734.0929000019969,True,False
13,3,1048.355926100001,star,"(-480.0, 270.0)",0,3563.034900002094,749.8498000022664,True,False
13,3,1048.3729366000007,star,"(-480.0, 270.0)",0,3580.0454000018362,766.8603000020084,True,False
13,3,1048.3896190000014,star,"(-480.0, 270.0)",0,3596.7278000025544,783.5427000027266,True,False
13,3,1048.4061011000013,star,"(-480.0, 270.0)",0,3613.2099000024027,800.0248000025749,True,False
13,3,1048.4227756,star,"(-480.0, 270.0)",0,3629.884400001174,816.6993000013463,True,False
13,3,1048.4395936,star,"(-480.0, 270.0)",0,3646.7024000012316,833.5173000014038,True,False
13,3,1048.4560652,star,"(-480.0, 270.0)",0,3663.174000001163,849.9889000013354,True,False
13,3,1048.4728484000007,star,"(-480.0, 270.0)",0,3679.957200001809,866.772100001981,True,False
13,3,1048.4894448000014,star,"(-480.0, 270.0)",0,3696.5536000025168,883.368500002689,True,False
13,3,1048.5062159000008,star,"(-480.0, 270.0)",0,3713.3247000019765,900.1396000021487,True,False
13,3,1048.5222772999987,star,"(-480.0, 270.0)",0,3729.3860999998287,916.2010000000009,True,False
13,3,1048.5396259000008,star,"(-480.0, 270.0)",0,3746.73470000198,933.5496000021521,True,False
13,3,1048.5561282999988,star,"(-480.0, 270.0)",0,3763.2370999999694,950.0520000001416,True,False
13,3,1048.5725089000007,star,"(-480.0, 270.0)",0,3779.617700001836,966.4326000020083,True,False
13,3,1048.5892897000012,star,"(-480.0, 270.0)",0,3796.3985000023968,983.213400002569,True,False
13,3,1048.6057791999992,star,"(-480.0, 270.0)",0,3812.8880000003846,999.7029000005568,True,False
13,3,1048.6229362000013,star,"(-480.0, 270.0)",0,3830.0450000024284,1016.8599000026006,True,False
13,3,1048.6399414000007,star,"(-480.0, 270.0)",0,3847.0502000018314,1033.8651000020036,True,False
13,3,1048.6563161000013,star,"(-480.0, 270.0)",0,3863.4249000024283,1050.2398000026005,True,False
13,3,1048.672607299999,star,"(-480.0, 270.0)",0,3879.7161000002234,1066.5310000003956,True,False
13,3,1048.6893335999994,star,"(-480.0, 270.0)",0,3896.442400000524,1083.257300000696,True,False
13,3,1048.7059245000019,star,"(-480.0, 270.0)",0,3913.0333000030078,1099.84820000318,True,False
13,3,1048.7226627000018,star,"(-480.0, 270.0)",0,3929.771500002971,1116.5864000031434,True,False
13,3,1048.7392978999997,star,"(-480.0, 270.0)",0,3946.406700000807,1133.2216000009794,True,False
13,3,1048.7555012000012,star,"(-480.0, 270.0)",0,3962.6100000023143,1149.4249000024865,True,False
13,3,1048.7724397999991,star,"(-480.0, 270.0)",0,3979.548600000271,1166.3635000004433,True,False
13,3,1048.7893576999995,star,"(-480.0, 270.0)",0,3996.466500000679,1183.2814000008511,True,False
13,3,1048.8058622999997,star,"(-480.0, 270.0)",0,4012.9711000008683,1199.7860000010405,True,False
13,3,1048.8232653000014,star,"(-480.0, 270.0)",0,4030.3741000025184,1217.1890000026906,True,False
13,3,1048.8397122999995,star,"(-480.0, 270.0)",0,4046.8211000006704,1233.6360000008426,True,False
13,3,1048.8561955000005,star,"(-480.0, 270.0)",0,4063.3043000016187,1250.119200001791,True,False
13,3,1048.872767500001,star,"(-480.0, 270.0)",0,4079.87630000207,1266.691200002242,True,False
13,3,1048.8894394999988,star,"(-480.0, 270.0)",0,4096.548299999995,1283.3632000001671,True,False
13,3,1048.9061225000005,star,"(-480.0, 270.0)",0,4113.231300001644,1300.046200001816,True,False
13,3,1048.922756,star,"(-480.0, 270.0)",0,4129.864800001087,1316.6797000012593,True,False
13,3,1048.939424799999,star,"(-480.0, 270.0)",0,4146.533600000112,1333.3485000002838,True,False
13,3,1048.9560960000017,star,"(-480.0, 270.0)",0,4163.204800002859,1350.0197000030312,True,False
13,3,1048.9733909999995,star,"(-480.0, 270.0)",0,4180.499800000689,1367.3147000008612,True,False
13,3,1048.9892790999984,star,"(-480.0, 270.0)",0,4196.387899999536,1383.202799999708,True,False
13,3,1049.0060111999992,star,"(-480.0, 270.0)",0,4213.120000000345,1399.9349000005168,True,False
13,3,1049.0225157999994,star,"(-480.0, 270.0)",0,4229.624600000534,1416.4395000007062,True,False
13,3,1049.0393592,star,"(-480.0, 270.0)",0,4246.468000001187,1433.282900001359,True,False
13,3,1049.0559912999997,star,"(-480.0, 270.0)",0,4263.100100000884,1449.915000001056,True,False
13,3,1049.0729060000012,star,"(-480.0, 270.0)",0,4280.014800002391,1466.8297000025632,True,False
13,3,1049.0893829999986,star,"(-480.0, 270.0)",0,4296.491799999785,1483.3066999999573,True,False
13,3,1049.1061121999992,star,"(-480.0, 270.0)",0,4313.22100000034,1500.035900000512,True,False
13,3,1049.122821699999,star,"(-480.0, 270.0)",0,4329.930500000046,1516.745400000218,True,False
13,3,1049.139250600001,star,"(-480.0, 270.0)",0,4346.359400002257,1533.174300002429,True,False
13,3,1049.1559559000016,star,"(-480.0, 270.0)",0,4363.064700002724,1549.879600002896,True,False
13,3,1049.1724040000008,star,"(-480.0, 270.0)",0,4379.512800001976,1566.327700002148,True,False
13,3,1049.189493599999,star,"(-480.0, 270.0)",0,4396.60240000012,1583.417300000292,True,False
13,3,1049.2055054000011,star,"(-480.0, 270.0)",0,4412.614200002281,1599.4291000024532,True,False
13,3,1049.2226483999984,star,"(-480.0, 270.0)",0,4429.757199999585,1616.5720999997575,True,False
13,3,1049.239050100001,star,"(-480.0, 270.0)",0,4446.158900002047,1632.973800002219,True,False
13,3,1049.2560871999995,star,"(-480.0, 270.0)",0,4463.1960000006075,1650.0109000007797,True,False
13,3,1049.2725695000008,star,"(-480.0, 270.0)",0,4479.678300001979,1666.4932000021508,True,False
13,3,1049.2896126000014,star,"(-480.0, 270.0)",0,4496.721400002571,1683.5363000027428,True,False
13,3,1049.3060269999987,star,"(-480.0, 270.0)",0,4513.135799999873,1699.950700000045,True,False
13,3,1049.3225872000003,star,"(-480.0, 270.0)",0,4529.696000001422,1716.5109000015946,True,False
13,3,1049.3393590000014,star,"(-480.0, 270.0)",0,4546.467800002574,1733.2827000027464,True,False
13,3,1049.3559825000011,star,"(-480.0, 270.0)",0,4563.09130000227,1749.9062000024423,True,False
13,3,1049.3726650999997,star,"(-480.0, 270.0)",0,4579.773900000873,1766.5888000010455,True,False
13,3,1049.3890625999993,star,"(-480.0, 270.0)",0,4596.171400000458,1782.9863000006299,True,False
13,3,1049.4057027000017,star,"(-480.0, 270.0)",0,4612.811500002863,1799.626400003035,True,False
13,3,1050.1216497999994,t,"(480.0, 270.0)",250.36239999826648,5328.758600000583,2515.5735000007553,False,True
13,4,1052.3204518999992,cross,"(480.0, -270.0)",266.17029999761144,7527.560700000322,2198.802099999739,False,True
14,1,1056.4205419999998,circle,"(-480.0, -270.0)",0,0.011000000085914508,0.011000000085914508,False,True
14,2,1056.9200391000013,cross,"(480.0, -270.0)",250.4858000029344,499.5081000015489,499.49710000146297,True,False
14,2,1056.939140800001,cross,"(480.0, -270.0)",0,518.6098000012862,518.5988000012003,True,False
14,2,1056.9530123000004,cross,"(480.0, -270.0)",0,532.4813000006543,532.4703000005684,True,False
14,2,1056.9699039000006,cross,"(480.0, -270.0)",0,549.3729000008898,549.3619000008039,True,False
14,2,1056.9865701000017,cross,"(480.0, -270.0)",0,566.0391000019445,566.0281000018585,True,False
14,2,1057.0031670999997,cross,"(480.0, -270.0)",0,582.6360999999451,582.6250999998592,True,False
14,2,1057.0199032000019,cross,"(480.0, -270.0)",0,599.372200002108,599.3612000020221,True,False
14,2,1057.0367847000016,cross,"(480.0, -270.0)",0,616.2537000018347,616.2427000017487,True,False
14,2,1057.0532485000003,cross,"(480.0, -270.0)",0,632.7175000005809,632.706500000495,True,False
14,2,1057.0699190000014,cross,"(480.0, -270.0)",0,649.3880000016361,649.3770000015502,True,False
14,2,1057.0863800000006,cross,"(480.0, -270.0)",0,665.8490000008896,665.8380000008037,True,False
14,2,1057.1035282999983,cross,"(480.0, -270.0)",0,682.997299998533,682.9862999984471,True,False
14,2,1057.1196062999988,cross,"(480.0, -270.0)",0,699.0752999990946,699.0642999990087,True,False
14,2,1057.1365890000015,cross,"(480.0, -270.0)",0,716.0580000017944,716.0470000017085,True,False
14,2,1057.1530445999997,cross,"(480.0, -270.0)",0,732.5135999999475,732.5025999998616,True,False
14,2,1057.1697055000004,cross,"(480.0, -270.0)",0,749.1745000006631,749.1635000005772,True,False
14,2,1057.1866135000018,cross,"(480.0, -270.0)",0,766.082500002085,766.0715000019991,True,False
14,2,1057.2032221000009,cross,"(480.0, -270.0)",0,782.6911000011023,782.6801000010164,True,False
14,2,1057.219813399999,cross,"(480.0, -270.0)",0,799.2823999993561,799.2713999992702,True,False
14,2,1057.2366509999993,cross,"(480.0, -270.0)",0,816.1199999995006,816.1089999994147,True,False
14,2,1057.2531553000008,cross,"(480.0, -270.0)",0,832.6243000010436,832.6133000009577,True,False
14,2,1057.2698041000003,cross,"(480.0, -270.0)",0,849.2731000005733,849.2621000004874,True,False
14,2,1057.2865208000003,cross,"(480.0, -270.0)",0,865.9898000005342,865.9788000004482,True,False
14,2,1057.2892797999993,circle,"(-480.0, -270.0)",267.3996999983501,868.7487999995938,868.7377999995078,True,False
14,2,1057.3063739999998,circle,"(-480.0, -270.0)",0,885.8430000000226,885.8319999999367,True,False
14,2,1057.319625600001,circle,"(-480.0, -270.0)",0,899.0946000012627,899.0836000011768,True,False
14,2,1057.3366209999986,circle,"(-480.0, -270.0)",0,916.0899999988033,916.0789999987173,True,False
14,2,1057.3531413000019,circle,"(-480.0, -270.0)",0,932.6103000021249,932.599300002039,True,False
14,2,1057.369663900001,circle,"(-480.0, -270.0)",0,949.1329000011319,949.121900001046,True,False
14,2,1057.3865458,circle,"(-480.0, -270.0)",0,966.0148000002664,966.0038000001805,True,False
14,2,1057.4028532000011,circle,"(-480.0, -270.0)",0,982.322200001363,982.311200001277,True,False
14,2,1057.4197357000012,circle,"(-480.0, -270.0)",0,999.2047000014281,999.1937000013422,True,False
14,2,1057.436656599999,circle,"(-480.0, -270.0)",0,1016.1255999992136,1016.1145999991277,True,False
14,2,1057.4534271999983,circle,"(-480.0, -270.0)",0,1032.896199998504,1032.885199998418,True,False
14,2,1057.4700766999995,circle,"(-480.0, -270.0)",0,1049.545699999726,1049.53469999964,True,False
14,2,1057.4866303000017,circle,"(-480.0, -270.0)",0,1066.0993000019516,1066.0883000018657,True,False
14,2,1057.5032371999987,circle,"(-480.0, -270.0)",0,1082.7061999989382,1082.6951999988523,True,False
14,2,1057.5201272000013,circle,"(-480.0, -270.0)",0,1099.5962000015425,1099.5852000014565,True,False
14,2,1057.5363026999985,circle,"(-480.0, -270.0)",0,1115.7716999987315,1115.7606999986456,True,False
14,2,1057.5528310000009,circle,"(-480.0, -270.0)",0,1132.3000000011234,1132.2890000010375,True,False
14,2,1057.5697857999985,circle,"(-480.0, -270.0)",0,1149.2547999987437,1149.2437999986578,True,False
14,2,1057.5862782000004,circle,"(-480.0, -270.0)",0,1165.7472000006237,1165.7362000005378,True,False
14,2,1057.6028321999984,circle,"(-480.0, -270.0)",0,1182.3011999986193,1182.2901999985334,True,False
14,2,1057.6199436999996,circle,"(-480.0, -270.0)",0,1199.4126999998116,1199.4016999997257,True,False
14,2,1057.6363329999986,circle,"(-480.0, -270.0)",0,1215.8019999988028,1215.7909999987169,True,False
14,2,1057.6532684000013,circle,"(-480.0, -270.0)",0,1232.737400001497,1232.726400001411,True,False
14,2,1057.6703382000014,circle,"(-480.0, -270.0)",0,1249.8072000016691,1249.7962000015832,True,False
14,2,1057.6865134,circle,"(-480.0, -270.0)",0,1265.9824000002118,1265.9714000001259,True,False
14,2,1057.7032599000013,circle,"(-480.0, -270.0)",0,1282.7289000015298,1282.717900001444,True,False
14,2,1057.7198476999984,circle,"(-480.0, -270.0)",0,1299.3166999985988,1299.3056999985129,True,False
14,2,1057.7366484999984,circle,"(-480.0, -270.0)",0,1316.1174999986542,1316.1064999985683,True,False
14,2,1057.7531802000012,circle,"(-480.0, -270.0)",0,1332.6492000014696,1332.6382000013837,True,False
14,2,1057.770032299999,circle,"(-480.0, -270.0)",0,1349.5012999992468,1349.490299999161,True,False
14,2,1057.7867036999996,circle,"(-480.0, -270.0)",0,1366.1726999998791,1366.1616999997932,True,False
14,2,1057.8029978999984,circle,"(-480.0, -270.0)",0,1382.4668999986898,1382.4558999986039,True,False
14,2,1057.819774399999,circle,"(-480.0, -270.0)",0,1399.24339999925,1399.232399999164,True,False
14,2,1057.8362420000012,circle,"(-480.0, -270.0)",0,1415.7110000014654,1415.7000000013795,True,False
14,2,1057.8532229000011,circle,"(-480.0, -270.0)",0,1432.6919000013731,1432.6809000012872,True,False
14,2,1057.8698995000013,circle,"(-480.0, -270.0)",0,1449.368500001583,1449.357500001497,True,False
14,2,1057.886854299999,circle,"(-480.0, -270.0)",0,1466.3232999992033,1466.3122999991174,True,False
14,2,1057.9033420000014,circle,"(-480.0, -270.0)",0,1482.811000001675,1482.800000001589,True,False
14,2,1057.9197295000013,circle,"(-480.0, -270.0)",0,1499.198500001512,1499.187500001426,True,False
14,2,1057.9364662000007,circle,"(-480.0, -270.0)",0,1515.9352000009676,1515.9242000008817,True,False
14,2,1057.9530845000008,circle,"(-480.0, -270.0)",0,1532.553500001086,1532.542500001,True,False
14,2,1057.9699035999984,circle,"(-480.0, -270.0)",0,1549.3725999986054,1549.3615999985195,True,False
14,2,1057.9865328999986,circle,"(-480.0, -270.0)",0,1566.0018999988097,1565.9908999987238,True,False
14,2,1058.0028687000013,circle,"(-480.0, -270.0)",0,1582.337700001517,1582.3267000014312,True,False
14,2,1058.0196437000013,circle,"(-480.0, -270.0)",0,1599.1127000015695,1599.1017000014836,True,False
14,2,1058.036407399999,circle,"(-480.0, -270.0)",0,1615.8763999992516,1615.8653999991657,True,False
14,2,1058.0529533000008,circle,"(-480.0, -270.0)",0,1632.4223000010534,1632.4113000009675,True,False
14,2,1058.0697590000018,circle,"(-480.0, -270.0)",0,1649.22800000204,1649.2170000019541,True,False
14,2,1058.0916910000014,circle,"(-480.0, -270.0)",0,1671.1600000016915,1671.1490000016056,True,False
14,2,1058.1043376000016,circle,"(-480.0, -270.0)",0,1683.8066000018443,1683.7956000017584,True,False
14,2,1058.119806300001,circle,"(-480.0, -270.0)",0,1699.275300001318,1699.2643000012322,True,False
14,2,1058.1364501999997,circle,"(-480.0, -270.0)",0,1715.9191999999166,1715.9081999998307,True,False
14,2,1058.1531493000002,circle,"(-480.0, -270.0)",0,1732.6183000004676,1732.6073000003817,True,False
14,2,1058.1696854000002,circle,"(-480.0, -270.0)",0,1749.154400000407,1749.143400000321,True,False
14,2,1058.1864234999994,circle,"(-480.0, -270.0)",0,1765.8924999996088,1765.881499999523,True,False
14,2,1058.2029249000007,circle,"(-480.0, -270.0)",0,1782.3939000008977,1782.3829000008118,True,False
14,2,1058.219580500001,circle,"(-480.0, -270.0)",0,1799.0495000012743,1799.0385000011884,True,False
14,2,1059.0684636000005,cross,"(480.0, -270.0)",250.08639999941806,2647.932600000786,2647.9216000007,False,True
14,3,1059.335626600001,cross,"(480.0, -270.0)",263.70980000137934,2915.095600001223,267.163000000437,True,False
14,3,1059.3548974000005,cross,"(480.0, -270.0)",0,2934.3664000007266,286.4337999999407,True,False
14,3,1059.3692072999984,cross,"(480.0, -270.0)",0,2948.676299998624,300.7436999978381,True,False
14,3,1059.3857878000017,cross,"(480.0, -270.0)",0,2965.256800001953,317.3242000011669,True,False
14,3,1059.4025449,cross,"(480.0, -270.0)",0,2982.013900000311,334.0812999995251,True,False
14,3,1059.4190234999987,cross,"(480.0, -270.0)",0,2998.4924999989744,350.5598999981885,True,False
14,3,1059.4357569999993,cross,"(480.0, -270.0)",0,3015.2259999995294,367.29339999874355,True,False
14,3,1059.4532389999986,cross,"(480.0, -270.0)",0,3032.70799999882,384.7753999980341,True,False
14,3,1059.4694506000014,cross,"(480.0, -270.0)",0,3048.919600001682,400.98700000089593,True,False
14,3,1059.4858255,cross,"(480.0, -270.0)",0,3065.2945000001637,417.3618999993778,True,False
14,3,1059.5026063000005,cross,"(480.0, -270.0)",0,3082.0753000007244,434.1426999999385,True,False
14,3,1059.5197129000007,cross,"(480.0, -270.0)",0,3099.1819000009855,451.2493000001996,True,False
14,3,1059.535918900001,cross,"(480.0, -270.0)",0,3115.387900001224,467.455300000438,True,False
14,3,1059.5524618000018,cross,"(480.0, -270.0)",0,3131.93080000201,483.9982000012242,True,False
14,3,1059.569161800002,cross,"(480.0, -270.0)",0,3148.630800002138,500.69820000135223,True,False
14,3,1059.5859697999986,cross,"(480.0, -270.0)",0,3165.4387999988103,517.5061999980244,True,False
14,3,1059.6023478999996,cross,"(480.0, -270.0)",0,3181.8168999998306,533.8842999990447,True,False
14,3,1059.6192169999995,cross,"(480.0, -270.0)",0,3198.685999999725,550.7533999989391,True,False
14,3,1059.6362169999993,cross,"(480.0, -270.0)",0,3215.6859999995504,567.7533999987645,True,False
14,3,1059.6524892999987,cross,"(480.0, -270.0)",0,3231.9582999989507,584.0256999981648,True,False
14,3,1059.6694410000018,cross,"(480.0, -270.0)",0,3248.91000000207,600.977400001284,True,False
14,3,1059.686026899999,cross,"(480.0, -270.0)",0,3265.495899999223,617.5632999984373,True,False
14,3,1059.7024114999986,cross,"(480.0, -270.0)",0,3281.880499998806,633.9478999980201,True,False
14,3,1059.7193512999984,cross,"(480.0, -270.0)",0,3298.8202999986243,650.8876999978384,True,False
14,3,1059.7358547000003,cross,"(480.0, -270.0)",0,3315.32370000059,667.3910999998043,True,False
14,3,1059.7524864000006,cross,"(480.0, -270.0)",0,3331.9554000008793,684.0228000000934,True,False
14,3,1059.7686828000005,cross,"(480.0, -270.0)",0,3348.151800000778,700.2191999999923,True,False
14,3,1059.7857829999994,cross,"(480.0, -270.0)",0,3365.2519999996002,717.3193999988143,True,False
14,3,1059.8026185000017,cross,"(480.0, -270.0)",0,3382.087500001944,734.1549000011582,True,False
14,3,1059.8191852000018,cross,"(480.0, -270.0)",0,3398.6542000020563,750.7216000012704,True,False
14,3,1059.8357576999988,cross,"(480.0, -270.0)",0,3415.226699999039,767.2940999982529,True,False
14,3,1059.8524346000013,cross,"(480.0, -270.0)",0,3431.903600001533,783.9710000007472,True,False
14,3,1059.8690887999983,cross,"(480.0, -270.0)",0,3448.5577999985253,800.6251999977394,True,False
14,3,1059.8858446000013,cross,"(480.0, -270.0)",0,3465.3136000015365,817.3810000007506,True,False
14,3,1059.9024825999986,cross,"(480.0, -270.0)",0,3481.9515999988653,834.0189999980794,True,False
14,3,1059.9190770999994,cross,"(480.0, -270.0)",0,3498.5460999996576,850.6134999988717,True,False
14,3,1059.9355829000015,cross,"(480.0, -270.0)",0,3515.0519000017084,867.1193000009225,True,False
14,3,1059.9522775000005,cross,"(480.0, -270.0)",0,3531.746500000736,883.8138999999501,True,False
14,3,1059.9691128999984,cross,"(480.0, -270.0)",0,3548.5818999986805,900.6492999978946,True,False
14,3,1059.9856370000016,cross,"(480.0, -270.0)",0,3565.1060000018333,917.1734000010474,True,False
14,3,1060.0022366999983,cross,"(480.0, -270.0)",0,3581.7056999985653,933.7730999977794,True,False
14,3,1060.0192811999987,cross,"(480.0, -270.0)",0,3598.7501999989036,950.8175999981177,True,False
14,3,1060.0357384999988,cross,"(480.0, -270.0)",0,3615.2074999990873,967.2748999983014,True,False
14,3,1060.0575798999998,cross,"(480.0, -270.0)",0,3637.0489000000816,989.1162999992957,True,False
14,3,1060.0692038999987,cross,"(480.0, -270.0)",0,3648.672899998928,1000.7402999981423,True,False
14,3,1060.0857042999996,cross,"(480.0, -270.0)",0,3665.1732999998785,1017.2406999990926,True,False
14,3,1060.1022918000017,cross,"(480.0, -270.0)",0,3681.760800001939,1033.8282000011532,True,False
14,3,1060.1191020000006,cross,"(480.0, -270.0)",0,3698.571000000811,1050.6384000000253,True,False
14,3,1060.1356606000008,cross,"(480.0, -270.0)",0,3715.1296000010916,1067.1970000003057,True,False
14,3,1060.1523192999994,cross,"(480.0, -270.0)",0,3731.7882999996073,1083.8556999988214,True,False
14,3,1060.1690493999995,cross,"(480.0, -270.0)",0,3748.518399999739,1100.585799998953,True,False
14,3,1060.185594999999,cross,"(480.0, -270.0)",0,3765.0639999992563,1117.1313999984704,True,False
14,3,1060.202328899999,cross,"(480.0, -270.0)",0,3781.797899999219,1133.8652999984333,True,False
14,3,1060.2188859999987,cross,"(480.0, -270.0)",0,3798.354999998992,1150.422399998206,True,False
14,3,1060.2354889999988,cross,"(480.0, -270.0)",0,3814.9579999990237,1167.0253999982378,True,False
14,3,1060.2521971999995,cross,"(480.0, -270.0)",0,3831.666199999745,1183.733599998959,True,False
14,3,1060.2689358999996,cross,"(480.0, -270.0)",0,3848.4048999998777,1200.4722999990918,True,False
14,3,1060.2910714999998,cross,"(480.0, -270.0)",0,3870.540500000061,1222.607899999275,True,False
14,3,1060.3023764999998,cross,"(480.0, -270.0)",0,3881.845500000054,1233.9128999992681,True,False
14,3,1060.3188314,cross,"(480.0, -270.0)",0,3898.300400000153,1250.367799999367,True,False
14,3,1060.3355330000013,cross,"(480.0, -270.0)",0,3915.00200000155,1267.0694000007643,True,False
14,3,1060.3521185999998,cross,"(480.0, -270.0)",0,3931.587600000057,1283.6549999992712,True,False
14,3,1060.3688679000006,cross,"(480.0, -270.0)",0,3948.336900000868,1300.404300000082,True,False
14,3,1060.3854962000005,cross,"(480.0, -270.0)",0,3964.9652000007336,1317.0325999999477,True,False
14,3,1060.4021963999985,cross,"(480.0, -270.0)",0,3981.6653999987466,1333.7327999979607,True,False
14,3,1060.4188661000007,cross,"(480.0, -270.0)",0,3998.335100000986,1350.4025000002002,True,False
14,3,1060.4356894000011,cross,"(480.0, -270.0)",0,4015.1584000013827,1367.2258000005968,True,False
14,3,1060.4516242999998,cross,"(480.0, -270.0)",0,4031.093300000066,1383.16069999928,True,False
14,3,1060.4689306,cross,"(480.0, -270.0)",0,4048.399600000266,1400.4669999994803,True,False
14,3,1060.4852269000003,cross,"(480.0, -270.0)",0,4064.6959000005154,1416.7632999997295,True,False
14,3,1060.5018400000008,cross,"(480.0, -270.0)",0,4081.309000001056,1433.3764000002702,True,False
14,3,1060.5186920000015,cross,"(480.0, -270.0)",0,4098.16100000171,1450.228400000924,True,False
14,3,1060.535607599999,cross,"(480.0, -270.0)",0,4115.076599999156,1467.1439999983704,True,False
14,3,1060.5521477000002,cross,"(480.0, -270.0)",0,4131.61670000045,1483.6840999996639,True,False
14,3,1060.5688088999996,cross,"(480.0, -270.0)",0,4148.277899999812,1500.3452999990259,True,False
14,3,1060.585603200001,cross,"(480.0, -270.0)",0,4165.072200001305,1517.1396000005188,True,False
14,3,1060.6021488000006,cross,"(480.0, -270.0)",0,4181.617800000822,1533.6852000000363,True,False
14,3,1060.6187642000004,cross,"(480.0, -270.0)",0,4198.233200000686,1550.3005999999004,True,False
14,3,1060.6354212000006,cross,"(480.0, -270.0)",0,4214.890200000809,1566.9576000000234,True,False
14,3,1060.652117900001,cross,"(480.0, -270.0)",0,4231.586900001275,1583.6543000004895,True,False
14,3,1060.6687515999984,cross,"(480.0, -270.0)",0,4248.220599998604,1600.2879999978177,True,False
14,3,1060.6849825999998,cross,"(480.0, -270.0)",0,4264.451600000029,1616.5189999992435,True,False
14,3,1060.7011702000018,cross,"(480.0, -270.0)",0,4280.639200002042,1632.7066000012564,True,False
14,3,1060.7183339000003,cross,"(480.0, -270.0)",0,4297.802900000534,1649.8702999997477,True,False
14,3,1060.7351855000015,cross,"(480.0, -270.0)",0,4314.6545000017795,1666.7219000009936,True,False
14,3,1060.7517929999995,cross,"(480.0, -270.0)",0,4331.261999999697,1683.329399998911,True,False
14,3,1060.768095200001,cross,"(480.0, -270.0)",0,4347.564200001216,1699.63160000043,True,False
14,3,1060.7858185000005,cross,"(480.0, -270.0)",0,4365.287500000704,1717.3548999999184,True,False
14,3,1060.8029311999999,cross,"(480.0, -270.0)",0,4382.40020000012,1734.4675999993342,True,False
14,3,1060.8185381000003,cross,"(480.0, -270.0)",0,4398.007100000541,1750.074499999755,True,False
14,3,1060.8349860999988,cross,"(480.0, -270.0)",0,4414.4550999990315,1766.5224999982456,True,False
14,3,1060.8515922000006,cross,"(480.0, -270.0)",0,4431.0612000008405,1783.1286000000546,True,False
14,3,1060.8683818999998,cross,"(480.0, -270.0)",0,4447.850900000049,1799.9182999992627,True,False
15,1,1068.3666434000006,circle,"(-480.0, -270.0)",0,0.012900000001536682,0.012900000001536682,False,True
15,2,1068.6328099999992,star,"(-480.0, 270.0)",264.4140999982483,266.1794999985432,266.16659999854164,True,False
15,2,1068.6519316000013,star,"(-480.0, 270.0)",0,285.3011000006518,285.28820000065025,True,False
15,2,1068.6660789000016,star,"(-480.0, 270.0)",0,299.4484000009834,299.43550000098185,True,False
15,2,1068.682841400001,star,"(-480.0, 270.0)",0,316.21090000044205,316.1980000004405,True,False
15,2,1068.6991323000002,star,"(-480.0, 270.0)",0,332.50179999959073,332.4888999995892,True,False
15,2,1068.7159132999986,star,"(-480.0, 270.0)",0,349.28279999803635,349.2698999980348,True,False
15,2,1068.7328686,star,"(-480.0, 270.0)",0,366.2380999994639,366.22519999946235,True,False
15,2,1068.7495498999997,star,"(-480.0, 270.0)",0,382.9193999990821,382.90649999908055,True,False
15,2,1068.7655884000014,star,"(-480.0, 270.0)",0,398.95790000082343,398.9450000008219,True,False
15,2,1068.7822941999984,star,"(-480.0, 270.0)",0,415.6636999978218,415.6507999978203,True,False
15,2,1068.7991662999993,star,"(-480.0, 270.0)",0,432.5357999987318,432.5228999987303,True,False
15,2,1068.816034899999,star,"(-480.0, 270.0)",0,449.40439999845694,449.3914999984554,True,False
15,2,1068.8327218999984,star,"(-480.0, 270.0)",0,466.091399997822,466.0784999978205,True,False
15,2,1068.8492181000001,star,"(-480.0, 270.0)",0,482.58759999953327,482.57469999953173,True,False
15,2,1068.8665451999987,star,"(-480.0, 270.0)",0,499.91469999804394,499.9017999980424,True,False
15,2,1068.8831649999993,star,"(-480.0, 270.0)",0,516.5344999986701,516.5215999986685,True,False
15,2,1068.8992881999984,star,"(-480.0, 270.0)",0,532.6576999977988,532.6447999977972,True,False
15,2,1068.916100999999,star,"(-480.0, 270.0)",0,549.4704999982787,549.4575999982771,True,False
15,2,1068.9330832999985,star,"(-480.0, 270.0)",0,566.4527999979327,566.4398999979312,True,False
15,2,1068.9491166000007,star,"(-480.0, 270.0)",0,582.4861000000965,582.473200000095,True,False
15,2,1068.9657918999983,star,"(-480.0, 270.0)",0,599.1613999976835,599.1484999976819,True,False
15,2,1068.9823789000002,star,"(-480.0, 270.0)",0,615.7483999995748,615.7354999995732,True,False
15,2,1068.9991941000008,star,"(-480.0, 270.0)",0,632.5636000001396,632.550700000138,True,False
15,2,1069.0157020000006,star,"(-480.0, 270.0)",0,649.0714999999909,649.0585999999894,True,False
15,2,1069.032336100001,star,"(-480.0, 270.0)",0,665.7056000003649,665.6927000003634,True,False
15,2,1069.0490107000005,star,"(-480.0, 270.0)",0,682.3801999998977,682.3672999998962,True,False
15,2,1069.0652821000003,star,"(-480.0, 270.0)",0,698.6515999997209,698.6386999997194,True,False
15,2,1069.0823259999997,star,"(-480.0, 270.0)",0,715.6954999991285,715.682599999127,True,False
15,2,1069.0987050000003,star,"(-480.0, 270.0)",0,732.074499999726,732.0615999997244,True,False
15,2,1069.1172719999995,star,"(-480.0, 270.0)",0,750.641499998892,750.6285999988904,True,False
15,2,1069.1195220000009,circle,"(-480.0, -270.0)",268.6652000011236,752.8915000002598,752.8786000002583,True,False
15,2,1069.1353549000014,circle,"(-480.0, -270.0)",0,768.7244000007922,768.7115000007907,True,False
15,2,1069.149123700001,circle,"(-480.0, -270.0)",0,782.4932000003173,782.4803000003158,True,False
15,2,1069.165591500001,circle,"(-480.0, -270.0)",0,798.9610000004177,798.9481000004162,True,False
15,2,1069.1821227,circle,"(-480.0, -270.0)",0,815.4921999994258,815.4792999994243,True,False
15,2,1069.1990025999985,circle,"(-480.0, -270.0)",0,832.3720999978832,832.3591999978817,True,False
15,2,1069.2156071999998,circle,"(-480.0, -270.0)",0,848.9766999991843,848.9637999991828,True,False
15,2,1069.2324526000011,circle,"(-480.0, -270.0)",0,865.8221000005142,865.8092000005126,True,False
15,2,1069.2493861000003,circle,"(-480.0, -270.0)",0,882.7555999996548,882.7426999996533,True,False
15,2,1069.2656405000016,circle,"(-480.0, -270.0)",0,899.0100000009988,898.9971000009973,True,False
15,2,1069.2824981000012,circle,"(-480.0, -270.0)",0,915.867600000638,915.8547000006365,True,False
15,2,1069.2992704999997,circle,"(-480.0, -270.0)",0,932.6399999990826,932.6270999990811,True,False
15,2,1069.3159622999992,circle,"(-480.0, -270.0)",0,949.3317999986175,949.318899998616,True,False
15,2,1069.3326549999983,circle,"(-480.0, -270.0)",0,966.0244999977294,966.0115999977279,True,False
15,2,1069.348481000001,circle,"(-480.0, -270.0)",0,981.8505000002915,981.83760000029,True,False
15,2,1069.3658206,circle,"(-480.0, -270.0)",0,999.1900999993959,999.1771999993944,True,False
15,2,1069.3824002000001,circle,"(-480.0, -270.0)",0,1015.7696999995096,1015.7567999995081,True,False
15,2,1069.3989251999992,circle,"(-480.0, -270.0)",0,1032.2946999986016,1032.2817999986,True,False
15,2,1069.4156712000004,circle,"(-480.0, -270.0)",0,1049.0406999997504,1049.0277999997488,True,False
15,2,1069.4323259999983,circle,"(-480.0, -270.0)",0,1065.6954999976733,1065.6825999976718,True,False
15,2,1069.4489959999992,circle,"(-480.0, -270.0)",0,1082.3654999985592,1082.3525999985577,True,False
15,2,1069.4663330000003,circle,"(-480.0, -270.0)",0,1099.7024999996938,1099.6895999996923,True,False
15,2,1069.4825041000004,circle,"(-480.0, -270.0)",0,1115.8735999997589,1115.8606999997573,True,False
15,2,1069.4991861000017,circle,"(-480.0, -270.0)",0,1132.5556000010693,1132.5427000010677,True,False
15,2,1069.5157786000018,circle,"(-480.0, -270.0)",0,1149.1481000011845,1149.135200001183,True,False
15,2,1069.532667200001,circle,"(-480.0, -270.0)",0,1166.0367000004044,1166.0238000004028,True,False
15,2,1069.5489966999994,circle,"(-480.0, -270.0)",0,1182.3661999987962,1182.3532999987947,True,False
15,2,1069.5650056999984,circle,"(-480.0, -270.0)",0,1198.3751999978267,1198.3622999978252,True,False
15,2,1069.5820701999983,circle,"(-480.0, -270.0)",0,1215.4396999976598,1215.4267999976582,True,False
15,2,1069.5985942000007,circle,"(-480.0, -270.0)",0,1231.9637000000512,1231.9508000000496,True,False
15,2,1069.6155203999988,circle,"(-480.0, -270.0)",0,1248.8898999981757,1248.8769999981741,True,False
15,2,1069.6324916999984,circle,"(-480.0, -270.0)",0,1265.8611999977438,1265.8482999977423,True,False
15,2,1069.6490059999996,circle,"(-480.0, -270.0)",0,1282.3754999990342,1282.3625999990327,True,False
15,2,1069.6660011999993,circle,"(-480.0, -270.0)",0,1299.3706999986898,1299.3577999986883,True,False
15,2,1069.6827631000015,circle,"(-480.0, -270.0)",0,1316.1326000008557,1316.1197000008542,True,False
15,2,1069.6994459999987,circle,"(-480.0, -270.0)",0,1332.8154999981052,1332.8025999981037,True,False
15,2,1069.7162911999985,circle,"(-480.0, -270.0)",0,1349.6606999979122,1349.6477999979106,True,False
15,2,1069.732495100001,circle,"(-480.0, -270.0)",0,1365.86460000035,1365.8517000003485,True,False
15,2,1069.7492127000005,circle,"(-480.0, -270.0)",0,1382.582199999888,1382.5692999998864,True,False
15,2,1069.765718999999,circle,"(-480.0, -270.0)",0,1399.08849999847,1399.0755999984685,True,False
15,2,1069.7822127,circle,"(-480.0, -270.0)",0,1415.582199999335,1415.5692999993335,True,False
15,2,1069.7989656999998,circle,"(-480.0, -270.0)",0,1432.3351999992155,1432.322299999214,True,False
15,2,1069.8155288999988,circle,"(-480.0, -270.0)",0,1448.8983999981428,1448.8854999981413,True,False
15,2,1069.832101600001,circle,"(-480.0, -270.0)",0,1465.4711000002862,1465.4582000002847,True,False
15,2,1069.848301099999,circle,"(-480.0, -270.0)",0,1481.6705999983242,1481.6576999983226,True,False
15,2,1069.8652083000015,circle,"(-480.0, -270.0)",0,1498.5778000009304,1498.564900000929,True,False
15,2,1069.882469799999,circle,"(-480.0, -270.0)",0,1515.8392999983334,1515.826399998332,True,False
15,2,1069.8988428999983,circle,"(-480.0, -270.0)",0,1532.2123999976611,1532.1994999976596,True,False
15,2,1069.9152805000012,circle,"(-480.0, -270.0)",0,1548.6500000006345,1548.637100000633,True,False
15,2,1069.9317217999997,circle,"(-480.0, -270.0)",0,1565.0912999990396,1565.078399999038,True,False
15,2,1069.9486225,circle,"(-480.0, -270.0)",0,1581.9919999994454,1581.9790999994439,True,False
15,2,1069.9656928000004,circle,"(-480.0, -270.0)",0,1599.0622999997868,1599.0493999997852,True,False
15,2,1069.9824604999994,circle,"(-480.0, -270.0)",0,1615.829999998823,1615.8170999988215,True,False
15,2,1069.9985978000004,circle,"(-480.0, -270.0)",0,1631.9672999998147,1631.9543999998132,True,False
15,2,1070.0154445000007,circle,"(-480.0, -270.0)",0,1648.8140000001295,1648.801100000128,True,False
15,2,1070.0321356999993,circle,"(-480.0, -270.0)",0,1665.5051999987336,1665.492299998732,True,False
15,2,1070.0485952000017,circle,"(-480.0, -270.0)",0,1681.9647000011173,1681.9518000011158,True,False
15,2,1070.0654684,circle,"(-480.0, -270.0)",0,1698.8378999994893,1698.8249999994878,True,False
15,2,1070.0822977999997,circle,"(-480.0, -270.0)",0,1715.6672999990406,1715.654399999039,True,False
15,2,1070.0984349999999,circle,"(-480.0, -270.0)",0,1731.8044999992708,1731.7915999992692,True,False
15,2,1070.1152637000014,circle,"(-480.0, -270.0)",0,1748.6332000007678,1748.6203000007663,True,False
15,2,1070.1321500999984,circle,"(-480.0, -270.0)",0,1765.5195999977877,1765.5066999977862,True,False
15,2,1070.1490496000006,circle,"(-480.0, -270.0)",0,1782.41909999997,1782.4061999999685,True,False
16,1,1082.4115057000017,circle,"(-480.0, -270.0)",0,0.023700002202531323,0.023700002202531323,False,True
17,1,1089.7265006000016,circle,"(-480.0, -270.0)",0,0.02099999983329326,0.02099999983329326,False,True
18,1,1103.7057376999983,circle,"(-480.0, -270.0)",0,0.02399999721092172,0.02399999721092172,False,True
19,1,1111.001999600001,circle,"(-480.0, -270.0)",0,0.022100000933278352,0.022100000933278352,False,True
20,1,1124.9319361000016,circle,"(-480.0, -270.0)",0,0.019800001609837636,0.019800001609837636,False,True
21,1,1132.2296185999985,circle,"(-480.0, -270.0)",0,0.02179999864893034,0.02179999864893034,False,True
21,2,1136.3762548000013,star,"(-480.0, 270.0)",250.0660000005155,4146.65800000148,4146.636200002831,False,True
21,3,1136.6430127999993,star,"(-480.0, 270.0)",263.6476000006951,4413.415999999415,266.75799999793526,True,False
21,3,1136.6629214999994,star,"(-480.0, 270.0)",0,4433.324699999503,286.6666999980225,True,False
21,3,1136.676870700001,star,"(-480.0, 270.0)",0,4447.273900001164,300.6158999996842,True,False
21,3,1136.6934460000011,star,"(-480.0, 270.0)",0,4463.8492000012775,317.1911999997974,True,False
21,3,1136.7102137000002,star,"(-480.0, 270.0)",0,4480.616900000314,333.95889999883366,True,False
21,3,1136.7266629000005,star,"(-480.0, 270.0)",0,4497.066100000666,350.40809999918565,True,False
21,3,1136.7434180000018,star,"(-480.0, 270.0)",0,4513.821200001985,367.16320000050473,True,False
21,3,1136.7599133000003,star,"(-480.0, 270.0)",0,4530.316500000481,383.6584999990009,True,False
21,3,1136.7766861000018,star,"(-480.0, 270.0)",0,4547.089300001971,400.4313000004913,True,False
21,3,1136.793458,star,"(-480.0, 270.0)",0,4563.861200000247,417.20319999876665,True,False
21,3,1136.8101862000003,star,"(-480.0, 270.0)",0,4580.589400000463,433.93139999898267,True,False
21,3,1136.8268086999997,star,"(-480.0, 270.0)",0,4597.21189999982,450.55389999834006,True,False
21,3,1136.8430144999984,star,"(-480.0, 270.0)",0,4613.417699998536,466.7596999970556,True,False
21,3,1136.8598902000012,star,"(-480.0, 270.0)",0,4630.293400001392,483.6353999999119,True,False
21,3,1136.8764690999997,star,"(-480.0, 270.0)",0,4646.872299999814,500.21429999833344,True,False
21,3,1136.8930212999985,star,"(-480.0, 270.0)",0,4663.424499998655,516.7664999971748,True,False
21,3,1136.9101573000007,star,"(-480.0, 270.0)",0,4680.560500000865,533.9024999993853,True,False
21,3,1136.9265773000006,star,"(-480.0, 270.0)",0,4696.980500000791,550.3224999993108,True,False
21,3,1136.9436091999996,star,"(-480.0, 270.0)",0,4714.012399999774,567.354399998294,True,False
21,3,1136.9600603,star,"(-480.0, 270.0)",0,4730.463500000042,583.8054999985616,True,False
21,3,1136.976864799999,star,"(-480.0, 270.0)",0,4747.267999999167,600.6099999976868,True,False
21,3,1136.9932843999995,star,"(-480.0, 270.0)",0,4763.687599999685,617.0295999982045,True,False
21,3,1137.0103477999983,star,"(-480.0, 270.0)",0,4780.750999998418,634.0929999969376,True,False
21,3,1137.027027799999,star,"(-480.0, 270.0)",0,4797.430999999051,650.7729999975709,True,False
21,3,1137.0434582999987,star,"(-480.0, 270.0)",0,4813.861499998893,667.203499997413,True,False
21,3,1137.0600517999992,star,"(-480.0, 270.0)",0,4830.454999999347,683.7969999978668,True,False
21,3,1137.0767806000003,star,"(-480.0, 270.0)",0,4847.183800000494,700.5257999990135,True,False
21,3,1137.0934866999996,star,"(-480.0, 270.0)",0,4863.889899999776,717.2318999982963,True,False
21,3,1137.1100254999983,star,"(-480.0, 270.0)",0,4880.428699998447,733.7706999969669,True,False
21,3,1137.1267585999994,star,"(-480.0, 270.0)",0,4897.161799999594,750.5037999981141,True,False
21,3,1137.1429585000005,star,"(-480.0, 270.0)",0,4913.361700000678,766.7036999991979,True,False
21,3,1137.1606622,star,"(-480.0, 270.0)",0,4931.0654000000795,784.4073999985994,True,False
21,3,1137.1764924999989,star,"(-480.0, 270.0)",0,4946.895699999004,800.237699997524,True,False
21,3,1137.1931336000016,star,"(-480.0, 270.0)",0,4963.536800001748,816.8788000002678,True,False
21,3,1137.2098764000002,star,"(-480.0, 270.0)",0,4980.279600000358,833.6215999988781,True,False
21,3,1137.2266065000003,star,"(-480.0, 270.0)",0,4997.00970000049,850.3516999990097,True,False
21,3,1137.243531600001,star,"(-480.0, 270.0)",0,5013.934800001152,867.2767999996722,True,False
21,3,1137.2599477000003,star,"(-480.0, 270.0)",0,5030.350900000485,883.692899999005,True,False
21,3,1137.2768711999997,star,"(-480.0, 270.0)",0,5047.274399999878,900.6163999983983,True,False
21,3,1137.2933669999984,star,"(-480.0, 270.0)",0,5063.770199998544,917.1121999970637,True,False
21,3,1137.3100304,star,"(-480.0, 270.0)",0,5080.433600000106,933.7755999986257,True,False
21,3,1137.3267221999995,star,"(-480.0, 270.0)",0,5097.125399999641,950.4673999981605,True,False
21,3,1137.3432662000014,star,"(-480.0, 270.0)",0,5113.669400001527,967.0114000000467,True,False
21,3,1137.3599701999992,star,"(-480.0, 270.0)",0,5130.373399999371,983.7153999978909,True,False
21,3,1137.3766127999988,star,"(-480.0, 270.0)",0,5147.015999998985,1000.3579999975045,True,False
21,3,1137.3933096,star,"(-480.0, 270.0)",0,5163.712800000212,1017.054799998732,True,False
21,3,1137.4096241000007,star,"(-480.0, 270.0)",0,5180.027300000802,1033.3692999993218,True,False
21,3,1137.4264827000006,star,"(-480.0, 270.0)",0,5196.88590000078,1050.2278999992996,True,False
21,3,1137.4480366999996,star,"(-480.0, 270.0)",0,5218.439899999794,1071.7818999983137,True,False
21,3,1137.4601679000007,star,"(-480.0, 270.0)",0,5230.571100000816,1083.9130999993358,True,False
21,3,1137.4767151000015,star,"(-480.0, 270.0)",0,5247.118300001603,1100.4603000001225,True,False
21,3,1137.4933772000004,star,"(-480.0, 270.0)",0,5263.780400000542,1117.1223999990616,True,False
21,3,1137.5099745000007,star,"(-480.0, 270.0)",0,5280.377700000827,1133.7196999993466,True,False
21,3,1137.5266728999995,star,"(-480.0, 270.0)",0,5297.0760999996855,1150.4180999982054,True,False
21,3,1137.5432097999983,star,"(-480.0, 270.0)",0,5313.6129999984405,1166.9549999969604,True,False
21,3,1137.5601131000003,star,"(-480.0, 270.0)",0,5330.516300000454,1183.858299998974,True,False
21,3,1137.5766705999995,star,"(-480.0, 270.0)",0,5347.0737999996345,1200.4157999981544,True,False
21,3,1137.593306499999,star,"(-480.0, 270.0)",0,5363.709699999163,1217.0516999976826,True,False
21,3,1137.6099772000016,star,"(-480.0, 270.0)",0,5380.380400001741,1233.7224000002607,True,False
21,3,1137.6265147999984,star,"(-480.0, 270.0)",0,5396.91799999855,1250.2599999970698,True,False
21,3,1137.6434379999992,star,"(-480.0, 270.0)",0,5413.841199999297,1267.1831999978167,True,False
21,3,1137.6595620000007,star,"(-480.0, 270.0)",0,5429.965200000879,1283.307199999399,True,False
21,3,1137.6763339999998,star,"(-480.0, 270.0)",0,5446.737199999916,1300.0791999984358,True,False
21,3,1137.6926225999996,star,"(-480.0, 270.0)",0,5463.025799999741,1316.367799998261,True,False
21,3,1137.7096237000005,star,"(-480.0, 270.0)",0,5480.0269000006665,1333.3688999991864,True,False
21,3,1137.7264963999987,star,"(-480.0, 270.0)",0,5496.899599998869,1350.2415999973891,True,False
21,3,1137.7430557000007,star,"(-480.0, 270.0)",0,5513.458900000842,1366.8008999993617,True,False
21,3,1137.7594653999986,star,"(-480.0, 270.0)",0,5529.868599998736,1383.2105999972555,True,False
21,3,1137.7764037999987,star,"(-480.0, 270.0)",0,5546.806999998807,1400.1489999973273,True,False
21,3,1137.7933779999985,star,"(-480.0, 270.0)",0,5563.78119999863,1417.1231999971496,True,False
21,3,1137.8098639000018,star,"(-480.0, 270.0)",0,5580.267100001947,1433.6091000004672,True,False
21,3,1137.8265930999987,star,"(-480.0, 270.0)",0,5596.996299998864,1450.3382999973837,True,False
21,3,1137.8430345000015,star,"(-480.0, 270.0)",0,5613.437700001668,1466.7797000001883,True,False
21,3,1137.859687799999,star,"(-480.0, 270.0)",0,5630.090999999084,1483.4329999976035,True,False
21,3,1137.8765965999992,star,"(-480.0, 270.0)",0,5646.999799999321,1500.341799997841,True,False
21,3,1137.893119799999,star,"(-480.0, 270.0)",0,5663.522999999259,1516.8649999977788,True,False
21,3,1137.9092764999987,star,"(-480.0, 270.0)",0,5679.679699998815,1533.0216999973345,True,False
21,3,1137.9260364000002,star,"(-480.0, 270.0)",0,5696.4396000003035,1549.7815999988234,True,False
21,3,1137.9428487000005,star,"(-480.0, 270.0)",0,5713.251900000614,1566.593899999134,True,False
21,3,1137.9597316,star,"(-480.0, 270.0)",0,5730.134800000087,1583.476799998607,True,False
21,3,1137.9763157000016,star,"(-480.0, 270.0)",0,5746.718900001724,1600.0609000002441,True,False
21,3,1137.9926947999993,star,"(-480.0, 270.0)",0,5763.097999999445,1616.439999997965,True,False
21,3,1138.0098565000008,star,"(-480.0, 270.0)",0,5780.259700000897,1633.6016999994172,True,False
21,3,1138.0265049000009,star,"(-480.0, 270.0)",0,5796.908100001019,1650.250099999539,True,False
21,3,1138.0429239000005,star,"(-480.0, 270.0)",0,5813.327100000606,1666.669099999126,True,False
21,3,1138.0597344999987,star,"(-480.0, 270.0)",0,5830.137699998886,1683.479699997406,True,False
21,3,1138.0764027000005,star,"(-480.0, 270.0)",0,5846.805900000618,1700.1478999991377,True,False
21,3,1138.0927899000017,star,"(-480.0, 270.0)",0,5863.1931000018085,1716.5351000003284,True,False
21,3,1138.1091668000008,star,"(-480.0, 270.0)",0,5879.570000000967,1732.9119999994873,True,False
21,3,1138.1261402000018,star,"(-480.0, 270.0)",0,5896.543400001974,1749.885400000494,True,False
21,3,1138.1427680000015,star,"(-480.0, 270.0)",0,5913.1712000016705,1766.5132000001904,True,False
21,3,1138.1598363000012,star,"(-480.0, 270.0)",0,5930.239500001335,1783.5814999998547,True,False
21,3,1139.6420832000003,circle,"(-480.0, -270.0)",266.36599999983446,7412.486400000489,3265.828399999009,False,True
21,4,1142.4580315999992,t,"(480.0, 270.0)",250.15979999807314,10228.434799999377,2815.948399998888,False,True
