trial_num,selection_num,timestamp,shape,position,fixation_duration_ms,rt_from_trial_start_ms,rt_from_previous_selection_ms,queued_selection,was_executed
13,1,182.78160200000275,circle,"(-480.0, -270.0)",0,0.00990001717582345,0.00990001717582345,False,True
13,2,183.04489999997895,circle,"(-480.0, -270.0)",261.056000017561,263.30789999337867,263.29799997620285,True,False
13,2,183.06444190000184,circle,"(-480.0, -270.0)",0,282.84980001626536,282.83989999908954,True,False
13,2,183.0772175999591,circle,"(-480.0, -270.0)",0,295.62549997353926,295.61559995636344,True,False
13,2,183.0950262999977,circle,"(-480.0, -270.0)",0,313.4342000121251,313.42429999494925,True,False
13,2,183.1106626999681,circle,"(-480.0, -270.0)",0,329.070599982515,329.06069996533915,True,False
13,2,183.128430199984,circle,"(-480.0, -270.0)",0,346.83809999842197,346.82819998124614,True,False
13,2,183.14399829995818,circle,"(-480.0, -270.0)",0,362.4061999726109,362.3962999554351,True,False
13,2,183.16177989996504,circle,"(-480.0, -270.0)",0,380.18779997946694,380.1778999622911,True,False
13,2,183.1777015000116,circle,"(-480.0, -270.0)",0,396.10940002603456,396.09950000885874,True,False
13,2,183.19493719999446,circle,"(-480.0, -270.0)",0,413.3451000088826,413.33519999170676,True,False
13,2,183.2117858999991,circle,"(-480.0, -270.0)",0,430.1938000135124,430.18389999633655,True,False
13,2,183.228759599966,circle,"(-480.0, -270.0)",0,447.1674999804236,447.1575999632478,True,False
13,2,183.24513009999646,circle,"(-480.0, -270.0)",0,463.5380000108853,463.5280999937095,True,False
13,2,183.2620719000115,circle,"(-480.0, -270.0)",0,480.4798000259325,480.46990000875667,True,False
13,2,183.2783674999955,circle,"(-480.0, -270.0)",0,496.7754000099376,496.76549999276176,True,False
13,2,183.2953290999867,circle,"(-480.0, -270.0)",0,513.7370000011288,513.7270999839529,True,False
13,2,183.3107452999684,circle,"(-480.0, -270.0)",0,529.1531999828294,529.1432999656536,True,False
13,2,183.3287880999851,circle,"(-480.0, -270.0)",0,547.1959999995306,547.1860999823548,True,False
13,2,183.34443669999018,circle,"(-480.0, -270.0)",0,562.8446000046097,562.8346999874339,True,False
13,2,183.36158520000754,circle,"(-480.0, -270.0)",0,579.9931000219658,579.98320000479,True,False
13,2,183.37758069997653,circle,"(-480.0, -270.0)",0,595.9885999909602,595.9786999737844,True,False
13,2,183.3949050999945,circle,"(-480.0, -270.0)",0,613.3130000089295,613.3030999917537,True,False
13,2,183.41081929998472,circle,"(-480.0, -270.0)",0,629.2271999991499,629.2172999819741,True,False
13,2,183.4281123999972,circle,"(-480.0, -270.0)",0,646.5203000116162,646.5103999944404,True,False
13,2,183.44518300000345,circle,"(-480.0, -270.0)",0,663.5909000178799,663.5810000007041,True,False
13,2,183.46174180001253,circle,"(-480.0, -270.0)",0,680.1497000269592,680.1398000097834,True,False
13,2,183.47879019996617,circle,"(-480.0, -270.0)",0,697.1980999805965,697.1881999634206,True,False
13,2,183.49549939995632,circle,"(-480.0, -270.0)",0,713.9072999707423,713.8973999535665,True,False
13,2,183.51155150000704,circle,"(-480.0, -270.0)",0,729.9594000214711,729.9495000042953,True,False
13,2,183.5286361000035,circle,"(-480.0, -270.0)",0,747.0440000179224,747.0341000007465,True,False
13,2,183.54390960000455,circle,"(-480.0, -270.0)",0,762.3175000189804,762.3076000018045,True,False
13,2,183.56178349995753,circle,"(-480.0, -270.0)",0,780.1913999719545,780.1814999547787,True,False
13,2,183.5777575999964,circle,"(-480.0, -270.0)",0,796.1655000108294,796.1555999936536,True,False
13,2,183.59497799997916,circle,"(-480.0, -270.0)",0,813.385899993591,813.3759999764152,True,False
13,2,183.61071629996877,circle,"(-480.0, -270.0)",0,829.1241999831982,829.1142999660224,True,False
13,2,183.62816490000114,circle,"(-480.0, -270.0)",0,846.572800015565,846.5628999983892,True,False
13,2,183.64414329995634,circle,"(-480.0, -270.0)",0,862.5511999707669,862.5412999535911,True,False
13,2,183.6618976999889,circle,"(-480.0, -270.0)",0,880.3056000033394,880.2956999861635,True,False
13,2,183.67814969999017,circle,"(-480.0, -270.0)",0,896.5576000045985,896.5476999874227,True,False
13,2,183.69542249996448,circle,"(-480.0, -270.0)",0,913.8303999789059,913.8204999617301,True,False
13,2,183.71149489999516,circle,"(-480.0, -270.0)",0,929.9028000095859,929.8928999924101,True,False
13,2,183.72849109995877,circle,"(-480.0, -270.0)",0,946.8989999732003,946.8890999560244,True,False
13,2,183.74496280000312,circle,"(-480.0, -270.0)",0,963.3707000175491,963.3608000003733,True,False
13,2,183.76119029999245,circle,"(-480.0, -270.0)",0,979.5982000068761,979.5882999897003,True,False
13,2,183.77690589998383,circle,"(-480.0, -270.0)",0,995.3137999982573,995.3038999810815,True,False
13,2,183.79468270001234,circle,"(-480.0, -270.0)",0,1013.0906000267714,1013.0807000095956,True,False
13,2,183.81049040000653,circle,"(-480.0, -270.0)",0,1028.8983000209555,1028.8884000037797,True,False
13,2,183.828376999998,circle,"(-480.0, -270.0)",0,1046.784900012426,1046.7749999952503,True,False
13,2,183.84388890000992,circle,"(-480.0, -270.0)",0,1062.2968000243418,1062.286900007166,True,False
13,2,183.86168899998302,circle,"(-480.0, -270.0)",0,1080.096899997443,1080.0869999802671,True,False
13,2,183.8780798999942,circle,"(-480.0, -270.0)",0,1096.4878000086173,1096.4778999914415,True,False
13,2,183.89513919997262,circle,"(-480.0, -270.0)",0,1113.547099987045,1113.537199969869,True,False
13,2,183.91142019996187,circle,"(-480.0, -270.0)",0,1129.8280999762937,1129.818199959118,True,False
13,2,183.92854499997338,circle,"(-480.0, -270.0)",0,1146.9528999878094,1146.9429999706335,True,False
13,2,183.94488929997897,circle,"(-480.0, -270.0)",0,1163.2971999933943,1163.2872999762185,True,False
13,2,183.9611128999968,circle,"(-480.0, -270.0)",0,1179.5208000112325,1179.5108999940567,True,False
13,2,183.97741910000332,circle,"(-480.0, -270.0)",0,1195.8270000177436,1195.8171000005677,True,False
13,2,183.99473819998093,circle,"(-480.0, -270.0)",0,1213.146099995356,1213.1361999781802,True,False
13,2,184.01113180001266,circle,"(-480.0, -270.0)",0,1229.5397000270896,1229.5298000099137,True,False
13,2,184.02990299998783,circle,"(-480.0, -270.0)",0,1248.3109000022523,1248.3009999850765,True,False
13,2,184.04404249996878,circle,"(-480.0, -270.0)",0,1262.4503999832086,1262.4404999660328,True,False
13,2,184.0616055999999,circle,"(-480.0, -270.0)",0,1280.01350001432,1280.0035999971442,True,False
13,2,184.07738370000152,circle,"(-480.0, -270.0)",0,1295.7916000159457,1295.78169999877,True,False
13,2,184.09494499996072,circle,"(-480.0, -270.0)",0,1313.3528999751434,1313.3429999579675,True,False
13,2,184.1116919000051,circle,"(-480.0, -270.0)",0,1330.099800019525,1330.0899000023492,True,False
13,2,184.12866220000433,circle,"(-480.0, -270.0)",0,1347.0701000187546,1347.0602000015788,True,False
13,2,184.1446370999911,circle,"(-480.0, -270.0)",0,1363.0450000055134,1363.0350999883376,True,False
13,2,184.16166729998076,circle,"(-480.0, -270.0)",0,1380.07519999519,1380.065299978014,True,False
13,2,184.17817349999677,circle,"(-480.0, -270.0)",0,1396.5814000112005,1396.5714999940246,True,False
13,2,184.1952658999944,circle,"(-480.0, -270.0)",0,1413.6738000088371,1413.6638999916613,True,False
13,2,184.21007510001073,circle,"(-480.0, -270.0)",0,1428.4830000251532,1428.4731000079773,True,False
13,2,184.22788139997283,circle,"(-480.0, -270.0)",0,1446.2892999872565,1446.2793999700807,True,False
13,2,184.24386049999157,circle,"(-480.0, -270.0)",0,1462.2684000059962,1462.2584999888204,True,False
13,2,184.26129059999948,circle,"(-480.0, -270.0)",0,1479.6985000139102,1479.6885999967344,True,False
13,2,184.2769796999637,circle,"(-480.0, -270.0)",0,1495.3875999781303,1495.3776999609545,True,False
13,2,184.29460759996437,circle,"(-480.0, -270.0)",0,1513.015499978792,1513.005599961616,True,False
13,2,184.31065229995875,circle,"(-480.0, -270.0)",0,1529.0601999731734,1529.0502999559976,True,False
13,2,184.32795359997544,circle,"(-480.0, -270.0)",0,1546.361499989871,1546.351599972695,True,False
13,2,184.34466569998767,circle,"(-480.0, -270.0)",0,1563.0736000020988,1563.063699984923,True,False
13,2,184.36183629999869,circle,"(-480.0, -270.0)",0,1580.2442000131123,1580.2342999959365,True,False
13,2,184.37800679996144,circle,"(-480.0, -270.0)",0,1596.4146999758668,1596.404799958691,True,False
13,2,184.395042499993,circle,"(-480.0, -270.0)",0,1613.450400007423,1613.4404999902472,True,False
13,2,184.41137779998826,circle,"(-480.0, -270.0)",0,1629.7857000026852,1629.7757999855094,True,False
13,2,184.4283723999979,circle,"(-480.0, -270.0)",0,1646.780300012324,1646.7703999951482,True,False
13,2,184.44473069999367,circle,"(-480.0, -270.0)",0,1663.1386000080965,1663.1286999909207,True,False
13,2,184.46149019995937,circle,"(-480.0, -270.0)",0,1679.8980999737978,1679.888199956622,True,False
13,2,184.47704689996317,circle,"(-480.0, -270.0)",0,1695.4547999775968,1695.444899960421,True,False
13,2,184.49452010000823,circle,"(-480.0, -270.0)",0,1712.9280000226572,1712.9181000054814,True,False
13,2,184.51012880000053,circle,"(-480.0, -270.0)",0,1728.5367000149563,1728.5267999977805,True,False
13,2,184.52776949998224,circle,"(-480.0, -270.0)",0,1746.177399996668,1746.1674999794923,True,False
13,2,184.54383249999955,circle,"(-480.0, -270.0)",0,1762.2404000139795,1762.2304999968037,True,False
13,2,184.56136579997838,circle,"(-480.0, -270.0)",0,1779.773699992802,1779.7637999756262,True,False
13,2,185.028425699973,cross,"(480.0, -270.0)",251.70289998641238,2246.83359998744,2246.823699970264,False,True
13,3,185.29467239999212,cross,"(480.0, -270.0)",263.5745999868959,2513.08030000655,266.24670001911,True,False
13,3,185.31307129998459,cross,"(480.0, -270.0)",0,2531.479199999012,284.64560001157224,True,False
13,3,185.3274681000039,cross,"(480.0, -270.0)",0,2545.8760000183247,299.0424000308849,True,False
13,3,185.34413099999074,cross,"(480.0, -270.0)",0,2562.5389000051655,315.7053000177257,True,False
13,3,185.36264810001012,cross,"(480.0, -270.0)",0,2581.056000024546,334.2224000371061,True,False
13,3,185.37719249998918,cross,"(480.0, -270.0)",0,2595.6004000036046,348.7668000161648,True,False
13,3,185.39429049997125,cross,"(480.0, -270.0)",0,2612.6983999856748,365.86479999823496,True,False
13,3,185.4106313000084,cross,"(480.0, -270.0)",0,2629.0392000228167,382.20560003537685,True,False
13,3,185.4275498999632,cross,"(480.0, -270.0)",0,2645.957799977623,399.1241999901831,True,False
13,3,185.4434664999717,cross,"(480.0, -270.0)",0,2661.874399986118,415.04079999867827,True,False
13,3,185.46148499997798,cross,"(480.0, -270.0)",0,2679.89289999241,433.0593000049703,True,False
13,3,185.47743629995966,cross,"(480.0, -270.0)",0,2695.84419997409,449.01059998665005,True,False
13,3,185.49454340001103,cross,"(480.0, -270.0)",0,2712.951300025452,466.1177000380121,True,False
13,3,185.5108615999925,cross,"(480.0, -270.0)",0,2729.2695000069216,482.4359000194818,True,False
13,3,185.52805819996865,cross,"(480.0, -270.0)",0,2746.466099983081,499.6324999956414,True,False
13,3,185.54309609998018,cross,"(480.0, -270.0)",0,2761.503999994602,514.6704000071622,True,False
13,3,185.5609607999795,cross,"(480.0, -270.0)",0,2779.368699993938,532.5351000064984,True,False
13,3,185.5763811999932,cross,"(480.0, -270.0)",0,2794.7891000076197,547.9555000201799,True,False
13,3,185.59407379996264,cross,"(480.0, -270.0)",0,2812.48169997707,565.6480999896303,True,False
13,3,185.61012079997454,cross,"(480.0, -270.0)",0,2828.528699988965,581.6951000015251,True,False
13,3,185.62760109995725,cross,"(480.0, -270.0)",0,2846.008999971673,599.1753999842331,True,False
13,3,185.64319859998068,cross,"(480.0, -270.0)",0,2861.606499995105,614.7729000076652,True,False
13,3,185.66135409998242,cross,"(480.0, -270.0)",0,2879.7619999968447,632.9284000094049,True,False
13,3,185.67725020000944,cross,"(480.0, -270.0)",0,2895.6581000238657,648.8245000364259,True,False
13,3,185.69407129997853,cross,"(480.0, -270.0)",0,2912.4791999929585,665.6456000055186,True,False
13,3,185.710739800008,cross,"(480.0, -270.0)",0,2929.1477000224404,682.3141000350006,True,False
13,3,185.7278353999718,cross,"(480.0, -270.0)",0,2946.243299986236,699.409699998796,True,False
13,3,185.7441705999663,cross,"(480.0, -270.0)",0,2962.5784999807365,715.7448999932967,True,False
13,3,185.7613078999566,cross,"(480.0, -270.0)",0,2979.715799971018,732.8821999835782,True,False
13,3,185.77767139999196,cross,"(480.0, -270.0)",0,2996.079300006386,749.2457000189461,True,False
13,3,185.79451470001368,cross,"(480.0, -270.0)",0,3012.922600028105,766.0890000406653,True,False
13,3,185.80967310001142,cross,"(480.0, -270.0)",0,3028.08100002585,781.24740003841,True,False
13,3,185.82729049999034,cross,"(480.0, -270.0)",0,3045.698400004767,798.8648000173271,True,False
13,3,185.84318239998538,cross,"(480.0, -270.0)",0,3061.590299999807,814.7567000123672,True,False
13,3,185.86071069998434,cross,"(480.0, -270.0)",0,3079.1185999987647,832.2850000113249,True,False
13,3,185.87663690000772,cross,"(480.0, -270.0)",0,3095.0448000221513,848.2112000347115,True,False
13,3,185.8941058999626,cross,"(480.0, -270.0)",0,3112.513799977023,865.6801999895833,True,False
13,3,185.91046240000287,cross,"(480.0, -270.0)",0,3128.8703000172973,882.0367000298575,True,False
13,3,185.9277420999715,cross,"(480.0, -270.0)",0,3146.149999985937,899.3163999984972,True,False
13,3,185.94408859999385,cross,"(480.0, -270.0)",0,3162.496500008274,915.6629000208341,True,False
13,3,185.96110129996669,cross,"(480.0, -270.0)",0,3179.509199981112,932.6755999936722,True,False
13,3,185.9774320999859,cross,"(480.0, -270.0)",0,3195.8400000003166,949.0064000128768,True,False
13,3,185.99467559996992,cross,"(480.0, -270.0)",0,3213.08349998435,966.2498999969102,True,False
13,3,186.00955459999386,cross,"(480.0, -270.0)",0,3227.9625000082888,981.128900020849,True,False
13,3,186.02789089997532,cross,"(480.0, -270.0)",0,3246.298799989745,999.4652000023052,True,False
13,3,186.04322009999305,cross,"(480.0, -270.0)",0,3261.6280000074767,1014.7944000200368,True,False
13,3,186.06066359998658,cross,"(480.0, -270.0)",0,3279.0715000010096,1032.2379000135697,True,False
13,3,186.07648679998238,cross,"(480.0, -270.0)",0,3294.894699996803,1048.0611000093631,True,False
13,3,186.09416639996925,cross,"(480.0, -270.0)",0,3312.5742999836802,1065.7406999962404,True,False
13,3,186.10994719999144,cross,"(480.0, -270.0)",0,3328.355100005865,1081.5215000184253,True,False
13,3,186.12727850000374,cross,"(480.0, -270.0)",0,3345.6864000181668,1098.852800030727,True,False
13,3,186.14426609996008,cross,"(480.0, -270.0)",0,3362.673999974504,1115.8403999870643,True,False
13,3,186.1610045999987,cross,"(480.0, -270.0)",0,3379.4125000131316,1132.5789000256918,True,False
13,3,186.17736579995835,cross,"(480.0, -270.0)",0,3395.7736999727786,1148.9400999853387,True,False
13,3,186.19432790001156,cross,"(480.0, -270.0)",0,3412.7358000259846,1165.9022000385448,True,False
13,3,186.2104828999727,cross,"(480.0, -270.0)",0,3428.89079998713,1182.05719999969,True,False
13,3,186.2277627000003,cross,"(480.0, -270.0)",0,3446.1706000147387,1199.337000027299,True,False
13,3,186.24283100001048,cross,"(480.0, -270.0)",0,3461.2389000249095,1214.4053000374697,True,False
13,3,186.26077479997184,cross,"(480.0, -270.0)",0,3479.182699986268,1232.349099998828,True,False
13,3,186.27651389996754,cross,"(480.0, -270.0)",0,3494.9217999819666,1248.0881999945268,True,False
13,3,186.29434809996746,cross,"(480.0, -270.0)",0,3512.7559999818914,1265.9223999944516,True,False
13,3,186.30997010000283,cross,"(480.0, -270.0)",0,3528.3780000172555,1281.5444000298157,True,False
13,3,186.32713569997577,cross,"(480.0, -270.0)",0,3545.5435999901965,1298.7100000027567,True,False
13,3,186.3430640999577,cross,"(480.0, -270.0)",0,3561.4719999721274,1314.6383999846876,True,False
13,3,186.36050309997518,cross,"(480.0, -270.0)",0,3578.9109999896027,1332.077400002163,True,False
13,3,186.37719209998613,cross,"(480.0, -270.0)",0,3595.600000000559,1348.766400013119,True,False
13,3,186.39426249999087,cross,"(480.0, -270.0)",0,3612.6704000052996,1365.8368000178598,True,False
13,3,186.410579999967,cross,"(480.0, -270.0)",0,3628.987899981439,1382.1542999939993,True,False
13,3,186.4276740999776,cross,"(480.0, -270.0)",0,3646.0819999920204,1399.2484000045806,True,False
13,3,186.44389279995812,cross,"(480.0, -270.0)",0,3662.3006999725476,1415.4670999851078,True,False
13,3,186.4613718999899,cross,"(480.0, -270.0)",0,3679.779800004326,1432.946200016886,True,False
13,3,186.47617509996053,cross,"(480.0, -270.0)",0,3694.582999974955,1447.749399987515,True,False
13,3,186.49392539996188,cross,"(480.0, -270.0)",0,3712.333299976308,1465.499699988868,True,False
13,3,186.50966410001274,cross,"(480.0, -270.0)",0,3728.0720000271685,1481.2384000397287,True,False
13,3,186.52752349997172,cross,"(480.0, -270.0)",0,3745.931399986148,1499.097799998708,True,False
13,3,186.54296829999657,cross,"(480.0, -270.0)",0,3761.376200011,1514.5426000235602,True,False
13,3,186.56023929995717,cross,"(480.0, -270.0)",0,3778.6471999716014,1531.8135999841616,True,False
13,3,186.5763482999755,cross,"(480.0, -270.0)",0,3794.7561999899335,1547.9226000024937,True,False
13,3,186.59390639996855,cross,"(480.0, -270.0)",0,3812.3142999829724,1565.4806999955326,True,False
13,3,186.61062519997358,cross,"(480.0, -270.0)",0,3829.03309998801,1582.19950000057,True,False
13,3,186.6276350999833,cross,"(480.0, -270.0)",0,3846.042999997735,1599.2094000102952,True,False
13,3,186.64389700000174,cross,"(480.0, -270.0)",0,3862.30490001617,1615.4713000287302,True,False
13,3,186.6607665999909,cross,"(480.0, -270.0)",0,3879.1745000053197,1632.34090001788,True,False
13,3,186.67740340001183,cross,"(480.0, -270.0)",0,3895.811300026253,1648.977700038813,True,False
13,3,186.69430229999125,cross,"(480.0, -270.0)",0,3912.7102000056766,1665.8766000182368,True,False
13,3,186.70903959998395,cross,"(480.0, -270.0)",0,3927.4474999983795,1680.6139000109397,True,False
13,3,186.7271163999685,cross,"(480.0, -270.0)",0,3945.524299982935,1698.6906999954954,True,False
13,3,186.7431002999656,cross,"(480.0, -270.0)",0,3961.508199980017,1714.674599992577,True,False
13,3,186.76051120000193,cross,"(480.0, -270.0)",0,3978.9191000163555,1732.0855000289157,True,False
13,3,186.7762219000142,cross,"(480.0, -270.0)",0,3994.6298000286333,1747.7962000411935,True,False
13,3,186.79363410000224,cross,"(480.0, -270.0)",0,4012.042000016663,1765.2084000292234,True,False
13,3,186.80968830001075,cross,"(480.0, -270.0)",0,4028.0962000251748,1781.262600037735,True,False
13,3,186.82761059998302,cross,"(480.0, -270.0)",0,4046.0184999974445,1799.1849000100046,True,False
13,3,188.7265461999923,t,"(480.0, 270.0)",266.4970000041649,5944.954100006726,3698.120500019286,False,True
14,1,198.02805379999336,circle,"(-480.0, -270.0)",0,0.010800024028867483,0.010800024028867483,False,True
14,2,199.00651430001017,circle,"(-480.0, -270.0)",266.3115000468679,978.4713000408374,978.4605000168085,True,False
14,2,199.02554010000313,circle,"(-480.0, -270.0)",0,997.4971000337973,997.4863000097685,True,False
14,2,199.0392070999951,circle,"(-480.0, -270.0)",0,1011.1641000257805,1011.1533000017516,True,False
14,2,199.05657089996384,circle,"(-480.0, -270.0)",0,1028.5278999945149,1028.517099970486,True,False
14,2,199.07246539997868,circle,"(-480.0, -270.0)",0,1044.4224000093527,1044.4115999853238,True,False
14,2,199.09016849996988,circle,"(-480.0, -270.0)",0,1062.1255000005476,1062.1146999765188,True,False
14,2,199.10642899997765,circle,"(-480.0, -270.0)",0,1078.3860000083223,1078.3751999842934,True,False
14,2,199.12371650000568,circle,"(-480.0, -270.0)",0,1095.673500036355,1095.6627000123262,True,False
14,2,199.13993949996075,circle,"(-480.0, -270.0)",0,1111.896499991417,1111.885699967388,True,False
14,2,199.1569285999867,circle,"(-480.0, -270.0)",0,1128.8856000173837,1128.8747999933548,True,False
14,2,199.17339199996786,circle,"(-480.0, -270.0)",0,1145.3489999985322,1145.3381999745034,True,False
14,2,199.19020000001183,circle,"(-480.0, -270.0)",0,1162.157000042498,1162.1462000184692,True,False
14,2,199.20592199999373,circle,"(-480.0, -270.0)",0,1177.8790000244044,1177.8682000003755,True,False
14,2,199.22313699999359,circle,"(-480.0, -270.0)",0,1195.0940000242554,1195.0832000002265,True,False
14,2,199.23892119998345,circle,"(-480.0, -270.0)",0,1210.8782000141218,1210.867399990093,True,False
14,2,199.25654669996584,circle,"(-480.0, -270.0)",0,1228.5036999965087,1228.4928999724798,True,False
14,2,199.27244359999895,circle,"(-480.0, -270.0)",0,1244.4006000296213,1244.3898000055924,True,False
14,2,199.28983049996896,circle,"(-480.0, -270.0)",0,1261.7874999996275,1261.7766999755986,True,False
14,2,199.30551989999367,circle,"(-480.0, -270.0)",0,1277.4769000243396,1277.4661000003107,True,False
14,2,199.323576099996,circle,"(-480.0, -270.0)",0,1295.5331000266597,1295.5223000026308,True,False
14,2,199.3398762999568,circle,"(-480.0, -270.0)",0,1311.8332999874838,1311.822499963455,True,False
14,2,199.35705980000785,circle,"(-480.0, -270.0)",0,1329.0168000385165,1329.0060000144877,True,False
14,2,199.3731192999985,circle,"(-480.0, -270.0)",0,1345.0763000291772,1345.0655000051484,True,False
14,2,199.39022329996806,circle,"(-480.0, -270.0)",0,1362.1802999987267,1362.1694999746978,True,False
14,2,199.4053451999789,circle,"(-480.0, -270.0)",0,1377.3022000095807,1377.2913999855518,True,False
14,2,199.42313790001208,circle,"(-480.0, -270.0)",0,1395.09490004275,1395.084100018721,True,False
14,2,199.43893219996244,circle,"(-480.0, -270.0)",0,1410.8891999931075,1410.8783999690786,True,False
14,2,199.45633429998998,circle,"(-480.0, -270.0)",0,1428.2913000206463,1428.2804999966174,True,False
14,2,199.47217359999195,circle,"(-480.0, -270.0)",0,1444.1306000226177,1444.1197999985889,True,False
14,2,199.4897278000135,circle,"(-480.0, -270.0)",0,1461.6848000441678,1461.674000020139,True,False
14,2,199.49161819997244,cross,"(480.0, -270.0)",266.60139998421073,1463.5752000031061,1463.5643999790773,True,False
14,2,199.50784029997885,cross,"(480.0, -270.0)",0,1479.7973000095226,1479.7864999854937,True,False
14,2,199.52375409996603,cross,"(480.0, -270.0)",0,1495.7110999966972,1495.7002999726683,True,False
14,2,199.53971659997478,cross,"(480.0, -270.0)",0,1511.6736000054516,1511.6627999814227,True,False
14,2,199.55683349998435,cross,"(480.0, -270.0)",0,1528.7905000150204,1528.7796999909915,True,False
14,2,199.57308790000388,cross,"(480.0, -270.0)",0,1545.0449000345543,1545.0341000105254,True,False
14,2,199.59019079996506,cross,"(480.0, -270.0)",0,1562.1477999957278,1562.136999971699,True,False
14,2,199.60644100001082,cross,"(480.0, -270.0)",0,1578.3980000414886,1578.3872000174597,True,False
14,2,199.62349889997859,cross,"(480.0, -270.0)",0,1595.4559000092559,1595.445099985227,True,False
14,2,199.63935339997988,cross,"(480.0, -270.0)",0,1611.3104000105523,1611.2995999865234,True,False
14,2,199.65744549996452,cross,"(480.0, -270.0)",0,1629.4024999951944,1629.3916999711655,True,False
14,2,199.67198350001127,cross,"(480.0, -270.0)",0,1643.9405000419356,1643.9297000179067,True,False
14,2,199.68966999999247,cross,"(480.0, -270.0)",0,1661.6270000231452,1661.6161999991164,True,False
14,2,199.70562409999548,cross,"(480.0, -270.0)",0,1677.5811000261456,1677.5703000021167,True,False
14,2,199.7230952999671,cross,"(480.0, -270.0)",0,1695.0522999977693,1695.0414999737404,True,False
14,2,199.73859540000558,cross,"(480.0, -270.0)",0,1710.5524000362493,1710.5416000122204,True,False
14,2,199.75630030001048,cross,"(480.0, -270.0)",0,1728.2573000411503,1728.2465000171214,True,False
14,2,199.77205420000246,cross,"(480.0, -270.0)",0,1744.0112000331283,1744.0004000090994,True,False
14,2,199.7900298999739,cross,"(480.0, -270.0)",0,1761.9869000045583,1761.9760999805294,True,False
14,2,199.7920481999754,cross,"(480.0, -270.0)",282.6348000089638,1764.0052000060678,1763.9943999820389,False,True
14,3,200.07262970000738,cross,"(480.0, -270.0)",263.328300032299,2044.586700038053,280.58150003198534,True,False
14,3,200.09217739995802,cross,"(480.0, -270.0)",0,2064.1343999886885,300.1291999826208,True,False
14,3,200.10523779998766,cross,"(480.0, -270.0)",0,2077.194800018333,313.18960001226515,True,False
14,3,200.12294949998613,cross,"(480.0, -270.0)",0,2094.906500016805,330.90130001073703,True,False
14,3,200.13869629998226,cross,"(480.0, -270.0)",0,2110.6533000129275,346.64810000685975,True,False
14,3,200.15609439997934,cross,"(480.0, -270.0)",0,2128.0514000100084,364.0462000039406,True,False
14,3,200.17215269996086,cross,"(480.0, -270.0)",0,2144.1096999915317,380.1044999854639,True,False
14,3,200.18961090000812,cross,"(480.0, -270.0)",0,2161.56790003879,397.5627000327222,True,False
14,3,200.2051431,cross,"(480.0, -270.0)",0,2177.100100030657,413.09490002458915,True,False
14,3,200.2225001999759,cross,"(480.0, -270.0)",0,2194.457200006582,430.4520000005141,True,False
14,3,200.23888139997143,cross,"(480.0, -270.0)",0,2210.8384000021033,446.83319999603555,True,False
14,3,200.25646619999316,cross,"(480.0, -270.0)",0,2228.423200023826,464.41800001775846,True,False
14,3,200.27265389997046,cross,"(480.0, -270.0)",0,2244.6109000011347,480.60569999506697,True,False
14,3,200.28998000000138,cross,"(480.0, -270.0)",0,2261.9370000320487,497.9318000259809,True,False
14,3,200.3060703999945,cross,"(480.0, -270.0)",0,2278.0274000251666,514.0222000190988,True,False
14,3,200.32290009997087,cross,"(480.0, -270.0)",0,2294.8571000015363,530.8518999954686,True,False
14,3,200.3392227999866,cross,"(480.0, -270.0)",0,2311.179800017271,547.1746000112034,True,False
14,3,200.3568350999849,cross,"(480.0, -270.0)",0,2328.792100015562,564.7869000094943,True,False
14,3,200.37297949998174,cross,"(480.0, -270.0)",0,2344.936500012409,580.9313000063412,True,False
14,3,200.3892751999665,cross,"(480.0, -270.0)",0,2361.2321999971755,597.2269999911077,True,False
14,3,200.4051775999833,cross,"(480.0, -270.0)",0,2377.13460001396,613.1294000078924,True,False
14,3,200.42255419999128,cross,"(480.0, -270.0)",0,2394.5112000219524,630.5060000158846,True,False
14,3,200.43930299999192,cross,"(480.0, -270.0)",0,2411.260000022594,647.2548000165261,True,False
14,3,200.4564185999916,cross,"(480.0, -270.0)",0,2428.375600022264,664.3704000161961,True,False
14,3,200.4725957000046,cross,"(480.0, -270.0)",0,2444.552700035274,680.5475000292063,True,False
14,3,200.48988670000108,cross,"(480.0, -270.0)",0,2461.84370003175,697.8385000256822,True,False
14,3,200.50599219999276,cross,"(480.0, -270.0)",0,2477.9492000234313,713.9440000173636,True,False
14,3,200.52304219995858,cross,"(480.0, -270.0)",0,2494.999199989252,730.993999983184,True,False
14,3,200.53930349997245,cross,"(480.0, -270.0)",0,2511.260500003118,747.2552999970503,True,False
14,3,200.5563448999892,cross,"(480.0, -270.0)",0,2528.301900019869,764.2967000138015,True,False
14,3,200.5714565999806,cross,"(480.0, -270.0)",0,2543.413600011263,779.4084000051953,True,False
14,3,200.58948199998122,cross,"(480.0, -270.0)",0,2561.4390000118874,797.4338000058196,True,False
14,3,200.6051742999698,cross,"(480.0, -270.0)",0,2577.131300000474,813.1260999944061,True,False
14,3,200.62243689998286,cross,"(480.0, -270.0)",0,2594.3939000135288,830.388700007461,True,False
14,3,200.63851449999493,cross,"(480.0, -270.0)",0,2610.4715000255965,846.4663000195287,True,False
14,3,200.65595310000936,cross,"(480.0, -270.0)",0,2627.910100040026,863.9049000339583,True,False
14,3,200.67258219997166,cross,"(480.0, -270.0)",0,2644.5392000023276,880.5339999962598,True,False
14,3,200.68958289996954,cross,"(480.0, -270.0)",0,2661.539900000207,897.5346999941394,True,False
14,3,200.70622749999166,cross,"(480.0, -270.0)",0,2678.1845000223257,914.1793000162579,True,False
14,3,200.72304859996075,cross,"(480.0, -270.0)",0,2695.0055999914184,931.0003999853507,True,False
14,3,200.7391572999768,cross,"(480.0, -270.0)",0,2711.114300007466,947.1091000013985,True,False
14,3,200.7562154000043,cross,"(480.0, -270.0)",0,2728.172400034964,964.1672000288963,True,False
14,3,200.77141459996346,cross,"(480.0, -270.0)",0,2743.371599994134,979.3663999880664,True,False
14,3,200.78943020000588,cross,"(480.0, -270.0)",0,2761.387200036552,997.382000030484,True,False
14,3,200.80497810000088,cross,"(480.0, -270.0)",0,2776.935100031551,1012.9299000254832,True,False
14,3,200.82260909996694,cross,"(480.0, -270.0)",0,2794.56609999761,1030.560899991542,True,False
14,3,200.83852280001156,cross,"(480.0, -270.0)",0,2810.4798000422306,1046.4746000361629,True,False
14,3,200.85575779998908,cross,"(480.0, -270.0)",0,2827.7148000197485,1063.7096000136808,True,False
14,3,200.87184779997915,cross,"(480.0, -270.0)",0,2843.8048000098206,1079.7996000037529,True,False
14,3,200.88919049996184,cross,"(480.0, -270.0)",0,2861.147499992512,1097.1422999864444,True,False
14,3,200.905214599974,cross,"(480.0, -270.0)",0,2877.171600004658,1113.1663999985904,True,False
14,3,200.92286679998506,cross,"(480.0, -270.0)",0,2894.823800015729,1130.8186000096612,True,False
14,3,200.93909329996677,cross,"(480.0, -270.0)",0,2911.0502999974415,1147.0450999913737,True,False
14,3,200.95630590000656,cross,"(480.0, -270.0)",0,2928.2629000372253,1164.2577000311576,True,False
14,3,200.97261339996476,cross,"(480.0, -270.0)",0,2944.5703999954276,1180.5651999893598,True,False
14,3,200.98943169997074,cross,"(480.0, -270.0)",0,2961.3887000014074,1197.3834999953397,True,False
14,3,201.00602380000055,cross,"(480.0, -270.0)",0,2977.9808000312187,1213.975600025151,True,False
14,3,201.02309659996536,cross,"(480.0, -270.0)",0,2995.0535999960266,1231.0483999899589,True,False
14,3,201.03810850001173,cross,"(480.0, -270.0)",0,3010.0655000424013,1246.0603000363335,True,False
14,3,201.05575429997407,cross,"(480.0, -270.0)",0,3027.7113000047393,1263.7060999986716,True,False
14,3,201.07157309999457,cross,"(480.0, -270.0)",0,3043.5301000252366,1279.5249000191689,True,False
14,3,201.09383129997877,cross,"(480.0, -270.0)",0,3065.7883000094444,1301.7831000033766,True,False
14,3,201.1074091999908,cross,"(480.0, -270.0)",0,3079.366200021468,1315.3610000154004,True,False
14,3,201.1226349999779,cross,"(480.0, -270.0)",0,3094.5920000085607,1330.586800002493,True,False
14,3,201.139306499972,cross,"(480.0, -270.0)",0,3111.2635000026785,1347.2582999966107,True,False
14,3,201.15628469997318,cross,"(480.0, -270.0)",0,3128.241700003855,1364.2364999977872,True,False
14,3,201.1731676000054,cross,"(480.0, -270.0)",0,3145.1246000360698,1381.119400030002,True,False
14,3,201.18986639997456,cross,"(480.0, -270.0)",0,3161.8234000052325,1397.8181999991648,True,False
14,3,201.2057039999636,cross,"(480.0, -270.0)",0,3177.6609999942593,1413.6557999881916,True,False
14,3,201.22287219995633,cross,"(480.0, -270.0)",0,3194.829199986998,1430.8239999809302,True,False
14,3,201.2391440999927,cross,"(480.0, -270.0)",0,3211.1011000233702,1447.0959000173025,True,False
14,3,201.256117300014,cross,"(480.0, -270.0)",0,3228.074300044682,1464.0691000386141,True,False
14,3,201.27143999998225,cross,"(480.0, -270.0)",0,3243.3970000129193,1479.3918000068516,True,False
14,3,201.2890223999857,cross,"(480.0, -270.0)",0,3260.9794000163674,1496.9742000102997,True,False
14,3,201.304722699977,cross,"(480.0, -270.0)",0,3276.679700007662,1512.6745000015944,True,False
14,3,201.32247139996616,cross,"(480.0, -270.0)",0,3294.428399996832,1530.4231999907643,True,False
14,3,201.33845959999599,cross,"(480.0, -270.0)",0,3310.416600026656,1546.4114000205882,True,False
14,3,201.35590039996896,cross,"(480.0, -270.0)",0,3327.8573999996297,1563.852199993562,True,False
14,3,201.3729730999912,cross,"(480.0, -270.0)",0,3344.930100021884,1580.924900015816,True,False
14,3,201.3895820999751,cross,"(480.0, -270.0)",0,3361.539100005757,1597.5338999996893,True,False
14,3,201.4057350999792,cross,"(480.0, -270.0)",0,3377.692100009881,1613.6869000038132,True,False
14,3,201.42294829996536,cross,"(480.0, -270.0)",0,3394.905299996026,1630.900099989958,True,False
14,3,201.43917959998362,cross,"(480.0, -270.0)",0,3411.136600014288,1647.1314000082202,True,False
14,3,201.45608959998935,cross,"(480.0, -270.0)",0,3428.046600020025,1664.0414000139572,True,False
14,3,201.47245479997946,cross,"(480.0, -270.0)",0,3444.41180001013,1680.406600004062,True,False
14,3,201.48946059995797,cross,"(480.0, -270.0)",0,3461.4175999886356,1697.4123999825679,True,False
14,3,201.5044689999777,cross,"(480.0, -270.0)",0,3476.4260000083596,1712.4208000022918,True,False
14,3,201.52229009999428,cross,"(480.0, -270.0)",0,3494.2471000249498,1730.241900018882,True,False
14,3,201.53926310001407,cross,"(480.0, -270.0)",0,3511.2201000447385,1747.2149000386707,True,False
14,3,201.55602179997368,cross,"(480.0, -270.0)",0,3527.978800004348,1763.9735999982804,True,False
14,3,201.5715333999833,cross,"(480.0, -270.0)",0,3543.4904000139795,1779.4852000079118,True,False
14,3,201.58894609997515,cross,"(480.0, -270.0)",0,3560.9031000058167,1796.897899999749,True,False
14,3,202.95526720001362,star,"(-480.0, 270.0)",251.4412000309676,4927.224200044293,3163.219000038225,False,True
15,1,218.9850980999763,circle,"(-480.0, -270.0)",0,0.009800016414374113,0.009800016414374113,False,True
15,2,219.26676019997103,star,"(-480.0, 270.0)",250.03369996557012,281.6719000111334,281.66209999471903,True,False
15,2,219.28544899995904,star,"(-480.0, 270.0)",0,300.36069999914616,300.3508999827318,True,False
15,2,219.29975110001396,star,"(-480.0, 270.0)",0,314.6628000540659,314.6530000376515,True,False
15,2,219.3165607000119,star,"(-480.0, 270.0)",0,331.4724000520073,331.4626000355929,True,False
15,2,219.3333765999996,star,"(-480.0, 270.0)",0,348.28830003971234,348.27850002329797,True,False
15,2,219.34894309996162,star,"(-480.0, 270.0)",0,363.8548000017181,363.84499998530373,True,False
15,2,219.36856089998037,star,"(-480.0, 270.0)",0,383.47260002046824,383.46280000405386,True,False
15,2,219.38249589997577,star,"(-480.0, 270.0)",0,397.4076000158675,397.3977999994531,True,False
15,2,219.4001328999875,star,"(-480.0, 270.0)",0,415.04460002761334,415.03480001119897,True,False
15,2,219.4168644999736,star,"(-480.0, 270.0)",0,431.7762000137009,431.7663999972865,True,False
15,2,219.4336079999921,star,"(-480.0, 270.0)",0,448.5197000321932,448.50990001577884,True,False
15,2,219.44987760001095,star,"(-480.0, 270.0)",0,464.7893000510521,464.77950003463775,True,False
15,2,219.4667083999957,star,"(-480.0, 270.0)",0,481.6201000357978,481.61030001938343,True,False
15,2,219.48324989998946,star,"(-480.0, 270.0)",0,498.16160002956167,498.1518000131473,True,False
15,2,219.50009039998986,star,"(-480.0, 270.0)",0,515.0021000299603,514.9923000135459,True,False
15,2,219.51648160000332,star,"(-480.0, 270.0)",0,531.393300043419,531.3835000270046,True,False
15,2,219.533084900002,star,"(-480.0, 270.0)",0,547.9966000420973,547.9868000256829,True,False
15,2,219.54877369996393,star,"(-480.0, 270.0)",0,563.685400004033,563.6755999876186,True,False
15,2,219.56660969997756,star,"(-480.0, 270.0)",0,581.5214000176638,581.5116000012495,True,False
15,2,219.5823451000033,star,"(-480.0, 270.0)",0,597.2568000433967,597.2470000269823,True,False
15,2,219.6000347000081,star,"(-480.0, 270.0)",0,614.9464000482112,614.9366000317968,True,False
15,2,219.61551089998102,star,"(-480.0, 270.0)",0,630.4226000211202,630.4128000047058,True,False
15,2,219.63285599998198,star,"(-480.0, 270.0)",0,647.7677000220865,647.7579000056721,True,False
15,2,219.6503745999653,star,"(-480.0, 270.0)",0,665.2863000053912,665.2764999889769,True,False
15,2,219.66681570000947,star,"(-480.0, 270.0)",0,681.7274000495672,681.7176000331528,True,False
15,2,219.68321559997275,star,"(-480.0, 270.0)",0,698.1273000128567,698.1174999964423,True,False
15,2,219.70035449997522,star,"(-480.0, 270.0)",0,715.2662000153214,715.256399998907,True,False
15,2,219.70189899997786,circle,"(-480.0, -270.0)",266.757300007157,716.8107000179589,716.8009000015445,True,False
15,2,219.719225000008,circle,"(-480.0, -270.0)",0,734.1367000481114,734.126900031697,True,False
15,2,219.73335499997484,circle,"(-480.0, -270.0)",0,748.2667000149377,748.2568999985233,True,False
15,2,219.74823319999268,circle,"(-480.0, -270.0)",0,763.1449000327848,763.1351000163704,True,False
15,2,219.76655140001094,circle,"(-480.0, -270.0)",0,781.4631000510417,781.4533000346273,True,False
15,2,219.78256859997055,circle,"(-480.0, -270.0)",0,797.4803000106476,797.4704999942333,True,False
15,2,219.7994461999624,circle,"(-480.0, -270.0)",0,814.3579000025056,814.3480999860913,True,False
15,2,219.81550779996905,circle,"(-480.0, -270.0)",0,830.4195000091568,830.4096999927424,True,False
15,2,219.8337453000131,circle,"(-480.0, -270.0)",0,848.6570000532083,848.647200036794,True,False
15,2,219.848852599971,circle,"(-480.0, -270.0)",0,863.7643000110984,863.754499994684,True,False
15,2,219.86691819998669,circle,"(-480.0, -270.0)",0,881.8299000267871,881.8201000103727,True,False
15,2,219.883197499963,circle,"(-480.0, -270.0)",0,898.1092000030912,898.0993999866769,True,False
15,2,219.90013129997533,circle,"(-480.0, -270.0)",0,915.0430000154302,915.0331999990158,True,False
15,2,219.91661580000073,circle,"(-480.0, -270.0)",0,931.5275000408292,931.5177000244148,True,False
15,2,219.93336909997743,circle,"(-480.0, -270.0)",0,948.2808000175282,948.2710000011139,True,False
15,2,219.94993629999226,circle,"(-480.0, -270.0)",0,964.8480000323616,964.8382000159472,True,False
15,2,219.96619780000765,circle,"(-480.0, -270.0)",0,981.1095000477508,981.0997000313364,True,False
15,2,219.98329890001332,circle,"(-480.0, -270.0)",0,998.2106000534259,998.2008000370115,True,False
15,2,219.99986999999965,circle,"(-480.0, -270.0)",0,1014.7817000397481,1014.7719000233337,True,False
15,2,220.01501279999502,circle,"(-480.0, -270.0)",0,1029.924500035122,1029.9147000187077,True,False
15,2,220.0328637000057,circle,"(-480.0, -270.0)",0,1047.7754000457935,1047.7656000293791,True,False
15,2,220.0489501999691,circle,"(-480.0, -270.0)",0,1063.8619000092149,1063.8520999928005,True,False
15,2,220.0661197999725,circle,"(-480.0, -270.0)",0,1081.0315000126138,1081.0216999961995,True,False
15,2,220.08251099998597,circle,"(-480.0, -270.0)",0,1097.4227000260726,1097.4129000096582,True,False
15,2,220.0993620000081,circle,"(-480.0, -270.0)",0,1114.2737000482157,1114.2639000318013,True,False
15,2,220.11523759999545,circle,"(-480.0, -270.0)",0,1130.149300035555,1130.1395000191405,True,False
15,2,220.13365019997582,circle,"(-480.0, -270.0)",0,1148.5619000159204,1148.552099999506,True,False
15,2,220.14966479997383,circle,"(-480.0, -270.0)",0,1164.5765000139363,1164.566699997522,True,False
15,2,220.16659350000555,circle,"(-480.0, -270.0)",0,1181.505200045649,1181.4954000292346,True,False
15,2,220.18324919999577,circle,"(-480.0, -270.0)",0,1198.160900035873,1198.1511000194587,True,False
15,2,220.19990790000884,circle,"(-480.0, -270.0)",0,1214.8196000489406,1214.8098000325263,True,False
15,2,220.2164294999675,circle,"(-480.0, -270.0)",0,1231.3412000075914,1231.331399991177,True,False
15,2,220.23240849998547,circle,"(-480.0, -270.0)",0,1247.3202000255696,1247.3104000091553,True,False
15,2,220.24925220001023,circle,"(-480.0, -270.0)",0,1264.1639000503346,1264.1541000339203,True,False
15,2,220.26621390000219,circle,"(-480.0, -270.0)",0,1281.1256000422873,1281.1158000258729,True,False
15,2,220.28192129998934,circle,"(-480.0, -270.0)",0,1296.8330000294372,1296.8232000130229,True,False
15,2,220.2997858999879,circle,"(-480.0, -270.0)",0,1314.697600028012,1314.6878000115976,True,False
15,2,220.31650269997772,circle,"(-480.0, -270.0)",0,1331.4144000178203,1331.404600001406,True,False
15,2,220.33258429996204,circle,"(-480.0, -270.0)",0,1347.4960000021383,1347.486199985724,True,False
15,2,220.3484807999921,circle,"(-480.0, -270.0)",0,1363.3925000322051,1363.3827000157908,True,False
15,2,220.36665260000154,circle,"(-480.0, -270.0)",0,1381.5643000416458,1381.5545000252314,True,False
15,2,220.38311019999674,circle,"(-480.0, -270.0)",0,1398.021900036838,1398.0121000204235,True,False
15,2,220.39990309998393,circle,"(-480.0, -270.0)",0,1414.8148000240326,1414.8050000076182,True,False
15,2,220.4163331000018,circle,"(-480.0, -270.0)",0,1431.2448000418954,1431.235000025481,True,False
15,2,220.43313929997385,circle,"(-480.0, -270.0)",0,1448.0510000139475,1448.041199997533,True,False
15,2,220.4493652000092,circle,"(-480.0, -270.0)",0,1464.276900049299,1464.2671000328846,True,False
15,2,220.4666384999873,circle,"(-480.0, -270.0)",0,1481.5502000274137,1481.5404000109993,True,False
15,2,220.4826916999882,circle,"(-480.0, -270.0)",0,1497.6034000283107,1497.5936000118963,True,False
15,2,220.49890780000715,circle,"(-480.0, -270.0)",0,1513.8195000472479,1513.8097000308335,True,False
15,2,220.5147852000082,circle,"(-480.0, -270.0)",0,1529.6969000482932,1529.6871000318788,True,False
15,2,220.53291839995654,circle,"(-480.0, -270.0)",0,1547.830099996645,1547.8202999802306,True,False
15,2,220.54866189998575,circle,"(-480.0, -270.0)",0,1563.5736000258476,1563.5638000094332,True,False
15,2,220.566396899987,circle,"(-480.0, -270.0)",0,1581.3086000271142,1581.2988000106998,True,False
15,2,220.58192339999368,circle,"(-480.0, -270.0)",0,1596.8351000337861,1596.8253000173718,True,False
15,2,220.5998525999603,circle,"(-480.0, -270.0)",0,1614.7643000003882,1614.7544999839738,True,False
15,2,220.6163349999697,circle,"(-480.0, -270.0)",0,1631.2467000097968,1631.2368999933824,True,False
15,2,220.6332567000063,circle,"(-480.0, -270.0)",0,1648.1684000464156,1648.1586000300013,True,False
15,2,220.64963190001436,circle,"(-480.0, -270.0)",0,1664.5436000544578,1664.5338000380434,True,False
15,2,220.66647619998548,circle,"(-480.0, -270.0)",0,1681.3879000255838,1681.3781000091694,True,False
15,2,220.68294709996553,circle,"(-480.0, -270.0)",0,1697.8588000056334,1697.848999989219,True,False
15,2,220.69999459997052,circle,"(-480.0, -270.0)",0,1714.9063000106253,1714.896499994211,True,False
15,2,220.7149286000058,circle,"(-480.0, -270.0)",0,1729.8403000459075,1729.8305000294931,True,False
15,2,220.73245640000096,circle,"(-480.0, -270.0)",0,1747.368100041058,1747.3583000246435,True,False
15,2,220.7483777999878,circle,"(-480.0, -270.0)",0,1763.289500027895,1763.2797000114806,True,False
15,2,220.7658836999908,circle,"(-480.0, -270.0)",0,1780.795400030911,1780.7856000144966,True,False
15,2,220.88236029999098,star,"(-480.0, 270.0)",264.3550999928266,1897.27200003108,1897.2622000146657,False,True
15,3,221.14908649999416,star,"(-480.0, 270.0)",264.15619999170303,2163.998200034257,266.7262000031769,True,False
15,3,221.16910649999045,star,"(-480.0, 270.0)",0,2184.0182000305504,286.74619999947026,True,False
15,3,221.18160589999752,star,"(-480.0, 270.0)",0,2196.517600037623,299.2456000065431,True,False
15,3,221.19981879997067,star,"(-480.0, 270.0)",0,2214.7305000107735,317.45849997969344,True,False
15,3,221.21511240000837,star,"(-480.0, 270.0)",0,2230.0241000484675,332.7521000173874,True,False
15,3,221.23259609995876,star,"(-480.0, 270.0)",0,2247.507799998857,350.235799967777,True,False
15,3,221.24842560000252,star,"(-480.0, 270.0)",0,2263.337300042622,366.0653000115417,True,False
15,3,221.2656721000094,star,"(-480.0, 270.0)",0,2280.5838000494987,383.3118000184186,True,False
15,3,221.28153889998794,star,"(-480.0, 270.0)",0,2296.450600028038,399.1785999969579,True,False
15,3,221.29976149997674,star,"(-480.0, 270.0)",0,2314.6732000168413,417.4011999857612,True,False
15,3,221.3159125999664,star,"(-480.0, 270.0)",0,2330.8243000064977,433.55229997541755,True,False
15,3,221.3331592999748,star,"(-480.0, 270.0)",0,2348.0710000148974,450.79899998381734,True,False
15,3,221.3491553000058,star,"(-480.0, 270.0)",0,2364.0670000459068,466.79500001482666,True,False
15,3,221.36617439996917,star,"(-480.0, 270.0)",0,2381.08610000927,483.8140999781899,True,False
15,3,221.38124309998238,star,"(-480.0, 270.0)",0,2396.1548000224866,498.8827999914065,True,False
15,3,221.39913669996895,star,"(-480.0, 270.0)",0,2414.048400009051,516.7763999779709,True,False
15,3,221.41434469999513,star,"(-480.0, 270.0)",0,2429.2564000352286,531.9844000041485,True,False
15,3,221.4323285999708,star,"(-480.0, 270.0)",0,2447.2403000108898,549.9682999798097,True,False
15,3,221.44816329999594,star,"(-480.0, 270.0)",0,2463.075000036042,565.8030000049621,True,False
15,3,221.4655563000124,star,"(-480.0, 270.0)",0,2480.468000052497,583.1960000214167,True,False
15,3,221.48260990000563,star,"(-480.0, 270.0)",0,2497.5216000457294,600.2496000146493,True,False
15,3,221.49904620001325,star,"(-480.0, 270.0)",0,2513.957900053356,616.6859000222757,True,False
15,3,221.51532549998956,star,"(-480.0, 270.0)",0,2530.23720002966,632.9651999985799,True,False
15,3,221.53313489997527,star,"(-480.0, 270.0)",0,2548.0466000153683,650.7745999842882,True,False
15,3,221.55223649996333,star,"(-480.0, 270.0)",0,2567.1482000034302,669.8761999723502,True,False
15,3,221.5661473000073,star,"(-480.0, 270.0)",0,2581.0590000473894,683.7870000163093,True,False
15,3,221.58245929999975,star,"(-480.0, 270.0)",0,2597.371000039857,700.0990000087768,True,False
15,3,221.59932469995692,star,"(-480.0, 270.0)",0,2614.2363999970257,716.9643999659456,True,False
15,3,221.61577309999848,star,"(-480.0, 270.0)",0,2630.68480003858,733.4128000074998,True,False
15,3,221.6329446999589,star,"(-480.0, 270.0)",0,2647.856399999,750.58439996792,True,False
15,3,221.64771749998908,star,"(-480.0, 270.0)",0,2662.629200029187,765.3571999981068,True,False
15,3,221.66548769996734,star,"(-480.0, 270.0)",0,2680.3994000074454,783.1273999763653,True,False
15,3,221.6816214999999,star,"(-480.0, 270.0)",0,2696.533200039994,799.2612000089139,True,False
15,3,221.6988987000077,star,"(-480.0, 270.0)",0,2713.810400047805,816.5384000167251,True,False
15,3,221.7148506999947,star,"(-480.0, 270.0)",0,2729.762400034815,832.490400003735,True,False
15,3,221.73280200001318,star,"(-480.0, 270.0)",0,2747.713700053282,850.441700022202,True,False
15,3,221.7491619999637,star,"(-480.0, 270.0)",0,2764.0737000037916,866.8016999727115,True,False
15,3,221.76619980001124,star,"(-480.0, 270.0)",0,2781.111500051338,883.8395000202581,True,False
15,3,221.78249479999067,star,"(-480.0, 270.0)",0,2797.4065000307746,900.1344999996945,True,False
15,3,221.7994672000059,star,"(-480.0, 270.0)",0,2814.3789000459947,917.1069000149146,True,False
15,3,221.81568840000546,star,"(-480.0, 270.0)",0,2830.600100045558,933.328100014478,True,False
15,3,221.8327711999882,star,"(-480.0, 270.0)",0,2847.6829000283033,950.4108999972232,True,False
15,3,221.84775289997924,star,"(-480.0, 270.0)",0,2862.664600019343,965.3925999882631,True,False
15,3,221.86598050000612,star,"(-480.0, 270.0)",0,2880.892200046219,983.6202000151388,True,False
15,3,221.88153909996618,star,"(-480.0, 270.0)",0,2896.450800006278,999.1787999751978,True,False
15,3,221.89957179996418,star,"(-480.0, 270.0)",0,2914.4835000042804,1017.2114999732003,True,False
15,3,221.9146639999817,star,"(-480.0, 270.0)",0,2929.5757000218146,1032.3036999907345,True,False
15,3,221.9321120000095,star,"(-480.0, 270.0)",0,2947.0237000496127,1049.7517000185326,True,False
15,3,221.94803639996098,star,"(-480.0, 270.0)",0,2962.9481000010855,1065.6760999700055,True,False
15,3,221.96626769995783,star,"(-480.0, 270.0)",0,2981.1793999979272,1083.9073999668472,True,False
15,3,221.98235760000534,star,"(-480.0, 270.0)",0,2997.2693000454456,1099.9973000143655,True,False
15,3,221.9995223999722,star,"(-480.0, 270.0)",0,3014.434100012295,1117.1620999812149,True,False
15,3,222.0157584999688,star,"(-480.0, 270.0)",0,3030.670200008899,1133.3981999778189,True,False
15,3,222.03344599995762,star,"(-480.0, 270.0)",0,3048.357699997723,1151.085699966643,True,False
15,3,222.0490122999763,star,"(-480.0, 270.0)",0,3063.9240000164136,1166.6519999853335,True,False
15,3,222.0658900999697,star,"(-480.0, 270.0)",0,3080.8018000097945,1183.5297999787144,True,False
15,3,222.08105679997243,star,"(-480.0, 270.0)",0,3095.968500012532,1198.6964999814518,True,False
15,3,222.10058689996367,star,"(-480.0, 270.0)",0,3115.498600003775,1218.226599972695,True,False
15,3,222.11445240001194,star,"(-480.0, 270.0)",0,3129.364100052044,1232.0921000209637,True,False
15,3,222.13196510000853,star,"(-480.0, 270.0)",0,3146.8768000486307,1249.6048000175506,True,False
15,3,222.14818489999743,star,"(-480.0, 270.0)",0,3163.096600037534,1265.8246000064537,True,False
15,3,222.1655594999902,star,"(-480.0, 270.0)",0,3180.471200030297,1283.199199999217,True,False
15,3,222.18234790000133,star,"(-480.0, 270.0)",0,3197.259600041434,1299.987600010354,True,False
15,3,222.19978729996365,star,"(-480.0, 270.0)",0,3214.6990000037476,1317.4269999726675,True,False
15,3,222.21556420001434,star,"(-480.0, 270.0)",0,3230.4759000544436,1333.2039000233635,True,False
15,3,222.2359107999946,star,"(-480.0, 270.0)",0,3250.822500034701,1353.550500003621,True,False
15,3,222.24797460000264,star,"(-480.0, 270.0)",0,3262.8863000427373,1365.6143000116572,True,False
15,3,222.26563749997877,star,"(-480.0, 270.0)",0,3280.549200018868,1383.2771999877878,True,False
15,3,222.28209609998157,star,"(-480.0, 270.0)",0,3297.0078000216745,1399.7357999905944,True,False
15,3,222.29834129998926,star,"(-480.0, 270.0)",0,3313.2530000293627,1415.9809999982826,True,False
15,3,222.31462109996937,star,"(-480.0, 270.0)",0,3329.532800009474,1432.260799978394,True,False
15,3,222.3320698000025,star,"(-480.0, 270.0)",0,3346.9815000426024,1449.7095000115223,True,False
15,3,222.34794800000964,star,"(-480.0, 270.0)",0,3362.8597000497393,1465.5877000186592,True,False
15,3,222.36543239996536,star,"(-480.0, 270.0)",0,3380.344100005459,1483.072099974379,True,False
15,3,222.38140909996582,star,"(-480.0, 270.0)",0,3396.320800005924,1499.0487999748439,True,False
15,3,222.39872999995714,star,"(-480.0, 270.0)",0,3413.6416999972425,1516.3696999661624,True,False
15,3,222.41454490000615,star,"(-480.0, 270.0)",0,3429.456600046251,1532.1846000151709,True,False
15,3,222.43241349997697,star,"(-480.0, 270.0)",0,3447.325200017076,1550.053199985996,True,False
15,3,222.44902770000044,star,"(-480.0, 270.0)",0,3463.9394000405446,1566.6674000094645,True,False
15,3,222.4660100999754,star,"(-480.0, 270.0)",0,3480.9218000154942,1583.6497999844141,True,False
15,3,222.48209710000083,star,"(-480.0, 270.0)",0,3497.0088000409305,1599.7368000098504,True,False
15,3,222.49905969999963,star,"(-480.0, 270.0)",0,3513.971400039736,1616.699400008656,True,False
15,3,222.5156563000055,star,"(-480.0, 270.0)",0,3530.568000045605,1633.296000014525,True,False
15,3,222.53251499996986,star,"(-480.0, 270.0)",0,3547.4267000099644,1650.1546999788843,True,False
15,3,222.5490446999902,star,"(-480.0, 270.0)",0,3563.9564000302926,1666.6843999992125,True,False
15,3,222.56573649996426,star,"(-480.0, 270.0)",0,3580.6482000043616,1683.3761999732815,True,False
15,3,222.5809975999873,star,"(-480.0, 270.0)",0,3595.909300027415,1698.637299996335,True,False
15,3,222.59859529999085,star,"(-480.0, 270.0)",0,3613.5070000309497,1716.2349999998696,True,False
15,3,222.61448629997903,star,"(-480.0, 270.0)",0,3629.398000019137,1732.1259999880567,True,False
15,3,222.63207609998062,star,"(-480.0, 270.0)",0,3646.9878000207245,1749.7157999896444,True,False
15,3,222.64785050001228,star,"(-480.0, 270.0)",0,3662.7622000523843,1765.4902000213042,True,False
15,3,222.66638439998496,star,"(-480.0, 270.0)",0,3681.2961000250652,1784.0240999939851,True,False
15,3,223.1325050999876,cross,"(480.0, -270.0)",251.52440002420917,4147.416800027713,2250.144799996633,False,True
15,4,225.96429169998737,t,"(480.0, 270.0)",264.7181000211276,6979.2034000274725,2831.7865999997593,False,True
16,1,230.09853640000802,circle,"(-480.0, -270.0)",0,0.010400020983070135,0.010400020983070135,False,True
16,2,230.3629122999846,cross,"(480.0, -270.0)",262.09660002496094,264.38629999756813,264.37589997658506,True,False
16,2,230.3833478000015,cross,"(480.0, -270.0)",0,284.8218000144698,284.8113999934867,True,False
16,2,230.39538979995996,cross,"(480.0, -270.0)",0,296.86379997292534,296.85339995194227,True,False
16,2,230.4126726000104,cross,"(480.0, -270.0)",0,314.1466000233777,314.1362000023946,True,False
16,2,230.42865429999074,cross,"(480.0, -270.0)",0,330.1283000037074,330.11789998272434,True,False
16,2,230.44623750000028,cross,"(480.0, -270.0)",0,347.71150001324713,347.70109999226406,True,False
16,2,230.46273209998617,cross,"(480.0, -270.0)",0,364.2060999991372,364.19569997815415,True,False
16,2,230.48019279999426,cross,"(480.0, -270.0)",0,381.6668000072241,381.656399986241,True,False
16,2,230.49661109998124,cross,"(480.0, -270.0)",0,398.08509999420494,398.07469997322187,True,False
16,2,230.51343069999712,cross,"(480.0, -270.0)",0,414.9047000100836,414.89429998910055,True,False
16,2,230.5300217999611,cross,"(480.0, -270.0)",0,431.4957999740727,431.48539995308965,True,False
16,2,230.546801999968,cross,"(480.0, -270.0)",0,448.27599998097867,448.2655999599956,True,False
16,2,230.56752459995914,cross,"(480.0, -270.0)",0,468.99859997211024,468.98819995112717,True,False
16,2,230.5792827999685,cross,"(480.0, -270.0)",0,480.7567999814637,480.74639996048063,True,False
16,2,230.5947858999716,cross,"(480.0, -270.0)",0,496.25989998457953,496.24949996359646,True,False
16,2,230.61251399997855,cross,"(480.0, -270.0)",0,513.9879999915138,513.9775999705307,True,False
16,2,230.62895380001282,cross,"(480.0, -270.0)",0,530.4278000257909,530.4174000048079,True,False
16,2,230.64644420001423,cross,"(480.0, -270.0)",0,547.9182000271976,547.9078000062145,True,False
16,2,230.66234629997052,cross,"(480.0, -270.0)",0,563.8202999834903,563.8098999625072,True,False
16,2,230.67905689997133,cross,"(480.0, -270.0)",0,580.5308999842964,580.5204999633133,True,False
16,2,230.69505619996926,cross,"(480.0, -270.0)",0,596.5301999822259,596.5197999612428,True,False
16,2,230.71236389997648,cross,"(480.0, -270.0)",0,613.8378999894485,613.8274999684654,True,False
16,2,230.72950519999722,cross,"(480.0, -270.0)",0,630.9792000101879,630.9687999892049,True,False
16,2,230.74662789999275,cross,"(480.0, -270.0)",0,648.1019000057131,648.09149998473,True,False
16,2,230.7629590999568,cross,"(480.0, -270.0)",0,664.4330999697559,664.4226999487728,True,False
16,2,230.7798321999726,cross,"(480.0, -270.0)",0,681.3061999855563,681.2957999645732,True,False
16,2,230.79624609998427,cross,"(480.0, -270.0)",0,697.720099997241,697.709699976258,True,False
16,2,230.81240850000177,cross,"(480.0, -270.0)",0,713.8825000147335,713.8720999937505,True,False
16,2,230.82801210001344,cross,"(480.0, -270.0)",0,729.4861000264063,729.4757000054233,True,False
16,2,230.8459022999741,cross,"(480.0, -270.0)",0,747.3762999870814,747.3658999660984,True,False
16,2,230.84762359998422,circle,"(-480.0, -270.0)",250.6145000224933,749.0975999971852,749.0871999762021,True,False
16,2,230.8644145000144,circle,"(-480.0, -270.0)",0,765.8885000273585,765.8781000063755,True,False
16,2,230.87916569999652,circle,"(-480.0, -270.0)",0,780.6397000094876,780.6292999885045,True,False
16,2,230.89903689996572,circle,"(-480.0, -270.0)",0,800.5108999786898,800.5004999577068,True,False
16,2,230.91295470000478,circle,"(-480.0, -270.0)",0,814.4287000177428,814.4182999967597,True,False
16,2,230.92838009999832,circle,"(-480.0, -270.0)",0,829.8541000112891,829.843699990306,True,False
16,2,230.94646919996012,circle,"(-480.0, -270.0)",0,847.9431999730878,847.9327999521047,True,False
16,2,230.96263099997304,circle,"(-480.0, -270.0)",0,864.1049999860115,864.0945999650285,True,False
16,2,230.9797776999767,circle,"(-480.0, -270.0)",0,881.2516999896616,881.2412999686785,True,False
16,2,230.9964349999791,circle,"(-480.0, -270.0)",0,897.9089999920689,897.8985999710858,True,False
16,2,231.0129533999716,circle,"(-480.0, -270.0)",0,914.4273999845609,914.4169999635778,True,False
16,2,231.02943589998176,circle,"(-480.0, -270.0)",0,930.909899994731,930.8994999737479,True,False
16,2,231.0462237999891,circle,"(-480.0, -270.0)",0,947.6978000020608,947.6873999810778,True,False
16,2,231.06151049997425,circle,"(-480.0, -270.0)",0,962.9844999872148,962.9740999662317,True,False
16,2,231.08033099997556,circle,"(-480.0, -270.0)",0,981.8049999885261,981.794599967543,True,False
16,2,231.0947796999826,circle,"(-480.0, -270.0)",0,996.2536999955773,996.2432999745943,True,False
16,2,231.11236989998724,circle,"(-480.0, -270.0)",0,1013.8439000002109,1013.8334999792278,True,False
16,2,231.1281342000002,circle,"(-480.0, -270.0)",0,1029.6082000131719,1029.5977999921888,True,False
16,2,231.14579129999038,circle,"(-480.0, -270.0)",0,1047.265300003346,1047.254899982363,True,False
16,2,231.16198350000195,circle,"(-480.0, -270.0)",0,1063.4575000149198,1063.4470999939367,True,False
16,2,231.1794760999619,circle,"(-480.0, -270.0)",0,1080.9500999748707,1080.9396999538876,True,False
16,2,231.1962415999733,circle,"(-480.0, -270.0)",0,1097.715599986259,1097.7051999652758,True,False
16,2,231.2130085999961,circle,"(-480.0, -270.0)",0,1114.4826000090688,1114.4721999880858,True,False
16,2,231.22930269996868,circle,"(-480.0, -270.0)",0,1130.7766999816522,1130.7662999606691,True,False
16,2,231.24639419995947,circle,"(-480.0, -270.0)",0,1147.8681999724358,1147.8577999514528,True,False
16,2,231.26244660001248,circle,"(-480.0, -270.0)",0,1163.920600025449,1163.9102000044659,True,False
16,2,231.27942609996535,circle,"(-480.0, -270.0)",0,1180.9000999783166,1180.8896999573335,True,False
16,2,231.29592939995928,circle,"(-480.0, -270.0)",0,1197.403399972245,1197.392999951262,True,False
16,2,231.31208399997558,circle,"(-480.0, -270.0)",0,1213.5579999885522,1213.547599967569,True,False
16,2,231.3288051999989,circle,"(-480.0, -270.0)",0,1230.2792000118643,1230.2687999908812,True,False
16,2,231.3462670999579,circle,"(-480.0, -270.0)",0,1247.741099970881,1247.7306999498978,True,False
16,2,231.36153240001295,circle,"(-480.0, -270.0)",0,1263.0064000259154,1262.9960000049323,True,False
16,2,231.378925899975,circle,"(-480.0, -270.0)",0,1280.3998999879695,1280.3894999669865,True,False
16,2,231.3947368999943,circle,"(-480.0, -270.0)",0,1296.2109000072815,1296.2004999862984,True,False
16,2,231.41276709997328,circle,"(-480.0, -270.0)",0,1314.2410999862477,1314.2306999652646,True,False
16,2,231.42919220001204,circle,"(-480.0, -270.0)",0,1330.6662000250071,1330.655800004024,True,False
16,2,231.44617030001245,circle,"(-480.0, -270.0)",0,1347.6443000254221,1347.633900004439,True,False
16,2,231.46251869999105,circle,"(-480.0, -270.0)",0,1363.9927000040188,1363.9822999830358,True,False
16,2,231.47968359995866,circle,"(-480.0, -270.0)",0,1381.1575999716297,1381.1471999506466,True,False
16,2,231.49578759999713,circle,"(-480.0, -270.0)",0,1397.261600010097,1397.251199989114,True,False
16,2,231.51320250000572,circle,"(-480.0, -270.0)",0,1414.676500018686,1414.666099997703,True,False
16,2,231.52769319998333,circle,"(-480.0, -270.0)",0,1429.1671999963,1429.156799975317,True,False
16,2,231.54602680000244,circle,"(-480.0, -270.0)",0,1447.5008000154048,1447.4903999944218,True,False
16,2,231.56136799999513,circle,"(-480.0, -270.0)",0,1462.842000008095,1462.831599987112,True,False
16,2,231.5789674000116,circle,"(-480.0, -270.0)",0,1480.4414000245742,1480.4310000035912,True,False
16,2,231.59481999999844,circle,"(-480.0, -270.0)",0,1496.294000011403,1496.28359999042,True,False
16,2,231.61231339996448,circle,"(-480.0, -270.0)",0,1513.7873999774456,1513.7769999564625,True,False
16,2,231.62796999997227,circle,"(-480.0, -270.0)",0,1529.443999985233,1529.4335999642499,True,False
16,2,231.64638779999223,circle,"(-480.0, -270.0)",0,1547.8618000051938,1547.8513999842107,True,False
16,2,231.66251150000608,circle,"(-480.0, -270.0)",0,1563.9855000190437,1563.9750999980606,True,False
16,2,231.67954370001098,circle,"(-480.0, -270.0)",0,1581.0177000239491,1581.007300002966,True,False
16,2,231.69572779996088,circle,"(-480.0, -270.0)",0,1597.2017999738455,1597.1913999528624,True,False
16,2,231.71289259998593,circle,"(-480.0, -270.0)",0,1614.3665999989025,1614.3561999779195,True,False
16,2,231.72778119996656,circle,"(-480.0, -270.0)",0,1629.255199979525,1629.244799958542,True,False
16,2,231.74645450001117,circle,"(-480.0, -270.0)",0,1647.9285000241362,1647.918100003153,True,False
16,2,231.76130909996573,circle,"(-480.0, -270.0)",0,1662.7830999786966,1662.7726999577135,True,False
16,2,231.7789585000137,circle,"(-480.0, -270.0)",0,1680.4325000266545,1680.4221000056714,True,False
16,2,231.79487240000162,circle,"(-480.0, -270.0)",0,1696.3464000145905,1696.3359999936074,True,False
16,2,231.81242119998205,circle,"(-480.0, -270.0)",0,1713.8951999950223,1713.8847999740392,True,False
16,2,231.82903149997583,circle,"(-480.0, -270.0)",0,1730.5054999887943,1730.4950999678113,True,False
16,2,231.8463122000103,circle,"(-480.0, -270.0)",0,1747.7862000232562,1747.7758000022732,True,False
16,2,231.86245349998353,circle,"(-480.0, -270.0)",0,1763.9274999964982,1763.9170999755152,True,False
16,2,231.87938649998978,circle,"(-480.0, -270.0)",0,1780.8605000027455,1780.8500999817625,True,False
16,2,232.24651369999629,star,"(-480.0, 270.0)",268.1231999886222,2147.987700009253,2147.97729998827,False,True
16,3,232.51245859998744,star,"(-480.0, 270.0)",262.70630001090467,2413.9326000004075,265.94489999115467,True,False
16,3,232.53109820000827,star,"(-480.0, 270.0)",0,2432.572200021241,284.584500011988,True,False
16,3,232.54513589997077,star,"(-480.0, 270.0)",0,2446.6098999837413,298.62219997448847,True,False
16,3,232.56215389998397,star,"(-480.0, 270.0)",0,2463.6278999969363,315.64019998768345,True,False
16,3,232.579104000004,star,"(-480.0, 270.0)",0,2480.578000016976,332.5903000077233,True,False
16,3,232.59425590001047,star,"(-480.0, 270.0)",0,2495.7299000234343,347.74220001418144,True,False
16,3,232.6117985000019,star,"(-480.0, 270.0)",0,2513.272500014864,365.28480000561103,True,False
16,3,232.62798319995636,star,"(-480.0, 270.0)",0,2529.457199969329,381.46949996007606,True,False
16,3,232.6451425999985,star,"(-480.0, 270.0)",0,2546.6166000114754,398.6289000022225,True,False
16,3,232.66125929995906,star,"(-480.0, 270.0)",0,2562.733299972024,414.74559996277094,True,False
16,3,232.67857970000478,star,"(-480.0, 270.0)",0,2580.053700017743,432.06600000848994,True,False
16,3,232.69476119999308,star,"(-480.0, 270.0)",0,2596.235200006049,448.24749999679625,True,False
16,3,232.71231360000093,star,"(-480.0, 270.0)",0,2613.787600013893,465.7999000046402,True,False
16,3,232.72885859996313,star,"(-480.0, 270.0)",0,2630.3325999761,482.34489996684715,True,False
16,3,232.74564479995752,star,"(-480.0, 270.0)",0,2647.1187999704853,499.1310999612324,True,False
16,3,232.7619013999938,star,"(-480.0, 270.0)",0,2663.375400006771,515.3876999975182,True,False
16,3,232.77910769998562,star,"(-480.0, 270.0)",0,2680.5816999985836,532.5939999893308,True,False
16,3,232.79550060001202,star,"(-480.0, 270.0)",0,2696.974600024987,548.9869000157341,True,False
16,3,232.8124164000037,star,"(-480.0, 270.0)",0,2713.8904000166804,565.9027000074275,True,False
16,3,232.82752260001143,star,"(-480.0, 270.0)",0,2728.996600024402,581.0089000151493,True,False
16,3,232.84529359999578,star,"(-480.0, 270.0)",0,2746.767600008752,598.7798999994993,True,False
16,3,232.86195120000048,star,"(-480.0, 270.0)",0,2763.425200013444,615.437500004191,True,False
16,3,232.87865259998944,star,"(-480.0, 270.0)",0,2780.1266000024043,632.1388999931514,True,False
16,3,232.89471399999456,star,"(-480.0, 270.0)",0,2796.1880000075325,648.2002999982797,True,False
16,3,232.91184799995972,star,"(-480.0, 270.0)",0,2813.321999972686,665.3342999634333,True,False
16,3,232.9278750999947,star,"(-480.0, 270.0)",0,2829.3491000076756,681.3613999984227,True,False
16,3,232.9454759999644,star,"(-480.0, 270.0)",0,2846.949999977369,698.962299968116,True,False
16,3,232.96134959999472,star,"(-480.0, 270.0)",0,2862.8236000076868,714.8358999984339,True,False
16,3,232.9790703000035,star,"(-480.0, 270.0)",0,2880.5443000164814,732.5566000072286,True,False
16,3,232.99545679998118,star,"(-480.0, 270.0)",0,2896.930799994152,748.9430999848992,True,False
16,3,233.012630000012,star,"(-480.0, 270.0)",0,2914.104000024963,766.1163000157103,True,False
16,3,233.02903509995667,star,"(-480.0, 270.0)",0,2930.5090999696404,782.5213999603875,True,False
16,3,233.0456828000024,star,"(-480.0, 270.0)",0,2947.156800015364,799.169100006111,True,False
16,3,233.0619432000094,star,"(-480.0, 270.0)",0,2963.417200022377,815.4295000131242,True,False
16,3,233.07901200000197,star,"(-480.0, 270.0)",0,2980.4860000149347,832.4983000056818,True,False
16,3,233.09521509998012,star,"(-480.0, 270.0)",0,2996.689099993091,848.7013999838382,True,False
16,3,233.1122545999824,star,"(-480.0, 270.0)",0,3013.7285999953747,865.7408999861218,True,False
16,3,233.12762639997527,star,"(-480.0, 270.0)",0,3029.1003999882378,881.1126999789849,True,False
16,3,233.14495589997387,star,"(-480.0, 270.0)",0,3046.4298999868333,898.4421999775805,True,False
16,3,233.16104169999016,star,"(-480.0, 270.0)",0,3062.515700003132,914.5279999938793,True,False
16,3,233.1783975000144,star,"(-480.0, 270.0)",0,3079.871500027366,931.8838000181131,True,False
16,3,233.194729299983,star,"(-480.0, 270.0)",0,3096.2032999959774,948.2155999867246,True,False
16,3,233.2123363999999,star,"(-480.0, 270.0)",0,3113.8104000128806,965.8227000036277,True,False
16,3,233.22871160000795,star,"(-480.0, 270.0)",0,3130.1856000209227,982.1979000116698,True,False
16,3,233.24552259995835,star,"(-480.0, 270.0)",0,3146.9965999713168,999.0088999620639,True,False
16,3,233.2618797000032,star,"(-480.0, 270.0)",0,3163.3537000161596,1015.3660000069067,True,False
16,3,233.27895969996462,star,"(-480.0, 270.0)",0,3180.433699977584,1032.4459999683313,True,False
16,3,233.29511129995808,star,"(-480.0, 270.0)",0,3196.585299971048,1048.597599961795,True,False
16,3,233.3119871999952,star,"(-480.0, 270.0)",0,3213.461200008169,1065.473499998916,True,False
16,3,233.327895800001,star,"(-480.0, 270.0)",0,3229.3698000139557,1081.3821000047028,True,False
16,3,233.34518499998376,star,"(-480.0, 270.0)",0,3246.6589999967255,1098.6712999874726,True,False
16,3,233.36092309997184,star,"(-480.0, 270.0)",0,3262.3970999848098,1114.4093999755569,True,False
16,3,233.37835999997333,star,"(-480.0, 270.0)",0,3279.8339999862947,1131.8462999770418,True,False
16,3,233.39464489999227,star,"(-480.0, 270.0)",0,3296.11890000524,1148.1311999959871,True,False
16,3,233.4117111999658,star,"(-480.0, 270.0)",0,3313.1851999787614,1165.1974999695085,True,False
16,3,233.4278424999793,star,"(-480.0, 270.0)",0,3329.3164999922737,1181.3287999830209,True,False
16,3,233.4455155999749,star,"(-480.0, 270.0)",0,3346.9895999878645,1199.0018999786116,True,False
16,3,233.4617661999655,star,"(-480.0, 270.0)",0,3363.2401999784634,1215.2524999692105,True,False
16,3,233.47885809995933,star,"(-480.0, 270.0)",0,3380.332099972293,1232.34439996304,True,False
16,3,233.49520299996948,star,"(-480.0, 270.0)",0,3396.6769999824464,1248.6892999731936,True,False
16,3,233.5124120999826,star,"(-480.0, 270.0)",0,3413.8860999955796,1265.8983999863267,True,False
16,3,233.52785799995763,star,"(-480.0, 270.0)",0,3429.3319999706,1281.3442999613471,True,False
16,3,233.54527729999973,star,"(-480.0, 270.0)",0,3446.751300012693,1298.76360000344,True,False
16,3,233.56068329996197,star,"(-480.0, 270.0)",0,3462.1572999749333,1314.1695999656804,True,False
16,3,233.57848239998566,star,"(-480.0, 270.0)",0,3479.9563999986276,1331.9686999893747,True,False
16,3,233.59418469999218,star,"(-480.0, 270.0)",0,3495.6587000051513,1347.6709999958985,True,False
16,3,233.61199479998322,star,"(-480.0, 270.0)",0,3513.46879999619,1365.481099986937,True,False
16,3,233.62805030000163,star,"(-480.0, 270.0)",0,3529.5243000146,1381.5366000053473,True,False
16,3,233.64487449999433,star,"(-480.0, 270.0)",0,3546.348500007298,1398.360799998045,True,False
16,3,233.66181620000862,star,"(-480.0, 270.0)",0,3563.2902000215836,1415.3025000123307,True,False
16,3,233.67874579998897,star,"(-480.0, 270.0)",0,3580.2198000019416,1432.2320999926887,True,False
16,3,233.6952653999906,star,"(-480.0, 270.0)",0,3596.739400003571,1448.7516999943182,True,False
16,3,233.7120504999766,star,"(-480.0, 270.0)",0,3613.5244999895804,1465.5367999803275,True,False
16,3,233.72849349997705,star,"(-480.0, 270.0)",0,3629.967499990016,1481.9797999807633,True,False
16,3,233.74540229997365,star,"(-480.0, 270.0)",0,3646.876299986616,1498.888599977363,True,False
16,3,233.7606775999884,star,"(-480.0, 270.0)",0,3662.15160000138,1514.163899992127,True,False
16,3,233.7786369000096,star,"(-480.0, 270.0)",0,3680.110900022555,1532.1232000133023,True,False
16,3,233.7939391999971,star,"(-480.0, 270.0)",0,3695.41320001008,1547.425500000827,True,False
16,3,233.81185269996058,star,"(-480.0, 270.0)",0,3713.3266999735497,1565.3389999642968,True,False
16,3,233.82837349997135,star,"(-480.0, 270.0)",0,3729.8474999843165,1581.8597999750637,True,False
16,3,233.84526989998994,star,"(-480.0, 270.0)",0,3746.7439000029117,1598.7561999936588,True,False
16,3,233.8613741999725,star,"(-480.0, 270.0)",0,3762.8481999854557,1614.8604999762028,True,False
16,3,233.8783763999818,star,"(-480.0, 270.0)",0,3779.850399994757,1631.8626999855042,True,False
16,3,233.8950556999771,star,"(-480.0, 270.0)",0,3796.52969999006,1648.5419999808073,True,False
16,3,233.91198999999324,star,"(-480.0, 270.0)",0,3813.4640000062063,1665.4762999969535,True,False
16,3,233.92841960000806,star,"(-480.0, 270.0)",0,3829.8936000210233,1681.9059000117704,True,False
16,3,233.9454032999929,star,"(-480.0, 270.0)",0,3846.877300005872,1698.889599996619,True,False
16,3,233.96151699998882,star,"(-480.0, 270.0)",0,3862.9910000017844,1715.0032999925315,True,False
16,3,233.9786965000094,star,"(-480.0, 270.0)",0,3880.170500022359,1732.1828000131063,True,False
16,3,233.99491129996022,star,"(-480.0, 270.0)",0,3896.38529997319,1748.397599963937,True,False
16,3,234.01210429996718,star,"(-480.0, 270.0)",0,3913.578299980145,1765.590599970892,True,False
16,3,234.0281051999773,star,"(-480.0, 270.0)",0,3929.5791999902576,1781.5914999810047,True,False
16,3,234.04492479999317,star,"(-480.0, 270.0)",0,3946.3988000061363,1798.4110999968834,True,False
16,3,234.6453663999564,cross,"(480.0, -270.0)",266.82989997789264,4546.840399969369,2398.8526999601163,False,True
16,4,237.8104632999748,t,"(480.0, 270.0)",266.5753000183031,7711.937299987767,3165.0969000183977,False,True
17,1,241.94401699997252,circle,"(-480.0, -270.0)",0,0.010899966582655907,0.010899966582655907,False,True
17,2,242.20895649999147,star,"(-480.0, 270.0)",263.0711999954656,264.95039998553693,264.9395000189543,True,False
17,2,242.22800770000322,star,"(-480.0, 270.0)",0,284.001599997282,283.9907000306994,True,False
17,2,242.2413672999828,star,"(-480.0, 270.0)",0,297.3611999768764,297.3503000102937,True,False
17,2,242.25897639995674,star,"(-480.0, 270.0)",0,314.97029995080084,314.9593999842182,True,False
17,2,242.27469809999457,star,"(-480.0, 270.0)",0,330.6919999886304,330.68110002204776,True,False
17,2,242.29283210000722,star,"(-480.0, 270.0)",0,348.8260000012815,348.81510003469884,True,False
17,2,242.309042399982,star,"(-480.0, 270.0)",0,365.0362999760546,365.0254000094719,True,False
17,2,242.32589879998704,star,"(-480.0, 270.0)",0,381.8926999811083,381.88180001452565,True,False
17,2,242.34246909996727,star,"(-480.0, 270.0)",0,398.46299996133894,398.4520999947563,True,False
17,2,242.3593030999764,star,"(-480.0, 270.0)",0,415.296999970451,415.28610000386834,True,False
17,2,242.37572969996836,star,"(-480.0, 270.0)",0,431.7235999624245,431.71269999584183,True,False
17,2,242.3918906999752,star,"(-480.0, 270.0)",0,447.88459996925667,447.873700002674,True,False
17,2,242.40785009996034,star,"(-480.0, 270.0)",0,463.8439999544062,463.8330999878235,True,False
17,2,242.42554779996863,star,"(-480.0, 270.0)",0,481.5416999626905,481.5307999961078,True,False
17,2,242.44132099999115,star,"(-480.0, 270.0)",0,497.31489998521283,497.3040000186302,True,False
17,2,242.4587753000087,star,"(-480.0, 270.0)",0,514.7692000027746,514.7583000361919,True,False
17,2,242.47528999997303,star,"(-480.0, 270.0)",0,531.283899967093,531.2730000005104,True,False
17,2,242.49288199999137,star,"(-480.0, 270.0)",0,548.8758999854326,548.86500001885,True,False
17,2,242.5090201999992,star,"(-480.0, 270.0)",0,565.0140999932773,565.0032000266947,True,False
17,2,242.52593579998938,star,"(-480.0, 270.0)",0,581.9296999834478,581.9188000168651,True,False
17,2,242.5423063999624,star,"(-480.0, 270.0)",0,598.3002999564633,598.2893999898806,True,False
17,2,242.55906830000458,star,"(-480.0, 270.0)",0,615.062199998647,615.0513000320643,True,False
17,2,242.57562550000148,star,"(-480.0, 270.0)",0,631.6193999955431,631.6085000289604,True,False
17,2,242.59256199997617,star,"(-480.0, 270.0)",0,648.5558999702334,648.5450000036508,True,False
17,2,242.6091310000047,star,"(-480.0, 270.0)",0,665.1248999987729,665.1140000321902,True,False
17,2,242.62588730000425,star,"(-480.0, 270.0)",0,681.8811999983154,681.8703000317328,True,False
17,2,242.6410277999821,star,"(-480.0, 270.0)",0,697.021699976176,697.0108000095934,True,False
17,2,242.65885609999532,star,"(-480.0, 270.0)",0,714.8499999893829,714.8391000228003,True,False
17,2,242.67458150000311,star,"(-480.0, 270.0)",0,730.5753999971785,730.5645000305958,True,False
17,2,242.69223939999938,star,"(-480.0, 270.0)",0,748.2332999934442,748.2224000268616,True,False
17,2,242.70823519997066,star,"(-480.0, 270.0)",0,764.229099964723,764.2181999981403,True,False
17,2,242.7254649999668,star,"(-480.0, 270.0)",0,781.4588999608532,781.4479999942705,True,False
17,2,242.74127790000057,star,"(-480.0, 270.0)",0,797.2717999946326,797.26090002805,True,False
17,2,242.75918769999407,star,"(-480.0, 270.0)",0,815.1815999881364,815.1707000215538,True,False
17,2,242.775518200011,star,"(-480.0, 270.0)",0,831.5121000050567,831.501200038474,True,False
17,2,242.79244220000692,star,"(-480.0, 270.0)",0,848.4361000009812,848.4252000343986,True,False
17,2,242.79445549997035,circle,"(-480.0, -270.0)",266.53839997015893,850.4493999644183,850.4384999978356,True,False
17,2,242.8111501999665,circle,"(-480.0, -270.0)",0,867.1440999605693,867.1331999939866,True,False
17,2,242.82564080000157,circle,"(-480.0, -270.0)",0,881.6346999956295,881.6238000290468,True,False
17,2,242.8422605000087,circle,"(-480.0, -270.0)",0,898.2544000027701,898.2435000361875,True,False
17,2,242.85922429995844,circle,"(-480.0, -270.0)",0,915.2181999525055,915.2072999859229,True,False
17,2,242.8743003999698,circle,"(-480.0, -270.0)",0,930.2942999638617,930.283399997279,True,False
17,2,242.89287649997277,circle,"(-480.0, -270.0)",0,948.870399966836,948.8595000002533,True,False
17,2,242.90792639995925,circle,"(-480.0, -270.0)",0,963.9202999533154,963.9093999867328,True,False
17,2,242.92545769998105,circle,"(-480.0, -270.0)",0,981.4515999751166,981.4407000085339,True,False
17,2,242.941246900009,circle,"(-480.0, -270.0)",0,997.2408000030555,997.2299000364728,True,False
17,2,242.9587175999768,circle,"(-480.0, -270.0)",0,1014.711499970872,1014.7006000042893,True,False
17,2,242.97461689997,circle,"(-480.0, -270.0)",0,1030.6107999640517,1030.599899997469,True,False
17,2,242.99216570000863,circle,"(-480.0, -270.0)",0,1048.1596000026911,1048.1487000361085,True,False
17,2,243.00824160000775,circle,"(-480.0, -270.0)",0,1064.2355000018142,1064.2246000352316,True,False
17,2,243.02602739998838,circle,"(-480.0, -270.0)",0,1082.0212999824435,1082.0104000158608,True,False
17,2,243.04210079996847,circle,"(-480.0, -270.0)",0,1098.0946999625303,1098.0837999959476,True,False
17,2,243.05918019998353,circle,"(-480.0, -270.0)",0,1115.1740999775939,1115.1632000110112,True,False
17,2,243.07540480000898,circle,"(-480.0, -270.0)",0,1131.3987000030465,1131.387800036464,True,False
17,2,243.09233559999848,circle,"(-480.0, -270.0)",0,1148.329499992542,1148.3186000259593,True,False
17,2,243.10870320000686,circle,"(-480.0, -270.0)",0,1164.6971000009216,1164.686200034339,True,False
17,2,243.12526090000756,circle,"(-480.0, -270.0)",0,1181.254800001625,1181.2439000350423,True,False
17,2,243.1407942000078,circle,"(-480.0, -270.0)",0,1196.7881000018679,1196.7772000352852,True,False
17,2,243.15881230001105,circle,"(-480.0, -270.0)",0,1214.806200005114,1214.7953000385314,True,False
17,2,243.17444510001224,circle,"(-480.0, -270.0)",0,1230.4390000062995,1230.4281000397168,True,False
17,2,243.19182139995974,circle,"(-480.0, -270.0)",0,1247.8152999537997,1247.804399987217,True,False
17,2,243.2078381999745,circle,"(-480.0, -270.0)",0,1263.8320999685675,1263.8212000019848,True,False
17,2,243.22534449998057,circle,"(-480.0, -270.0)",0,1281.3383999746293,1281.3275000080466,True,False
17,2,243.24111329996958,circle,"(-480.0, -270.0)",0,1297.1071999636479,1297.0962999970652,True,False
17,2,243.259074600006,circle,"(-480.0, -270.0)",0,1315.0685000000522,1315.0576000334695,True,False
17,2,243.27553409995744,circle,"(-480.0, -270.0)",0,1331.5279999515042,1331.5170999849215,True,False
17,2,243.29258700000355,circle,"(-480.0, -270.0)",0,1348.5808999976143,1348.5700000310317,True,False
17,2,243.30863270000555,circle,"(-480.0, -270.0)",0,1364.6265999996103,1364.6157000330277,True,False
17,2,243.3257842999883,circle,"(-480.0, -270.0)",0,1381.7781999823637,1381.767300015781,True,False
17,2,243.3422242999659,circle,"(-480.0, -270.0)",0,1398.218199959956,1398.2072999933735,True,False
17,2,243.3582326999749,circle,"(-480.0, -270.0)",0,1414.2265999689698,1414.2157000023872,True,False
17,2,243.37415689998306,circle,"(-480.0, -270.0)",0,1430.1507999771275,1430.1399000105448,True,False
17,2,243.39189929998247,circle,"(-480.0, -270.0)",0,1447.8931999765337,1447.882300009951,True,False
17,2,243.40765389997978,circle,"(-480.0, -270.0)",0,1463.6477999738418,1463.636900007259,True,False
17,2,243.42530639999313,circle,"(-480.0, -270.0)",0,1481.300299987197,1481.2894000206143,True,False
17,2,243.44098989997292,circle,"(-480.0, -270.0)",0,1496.9837999669835,1496.9729000004008,True,False
17,2,243.45847279997543,circle,"(-480.0, -270.0)",0,1514.4666999694891,1514.4558000029065,True,False
17,2,243.47449599998072,circle,"(-480.0, -270.0)",0,1530.489899974782,1530.4790000081994,True,False
17,2,243.49231750000035,circle,"(-480.0, -270.0)",0,1548.311399994418,1548.3005000278354,True,False
17,2,243.50854609999806,circle,"(-480.0, -270.0)",0,1564.539999992121,1564.5291000255384,True,False
17,2,243.52564449998317,circle,"(-480.0, -270.0)",0,1581.638399977237,1581.6275000106543,True,False
17,2,243.54193309997208,circle,"(-480.0, -270.0)",0,1597.9269999661483,1597.9160999995656,True,False
17,2,243.55880780000007,circle,"(-480.0, -270.0)",0,1614.801699994132,1614.7908000275493,True,False
17,2,243.5752564999857,circle,"(-480.0, -270.0)",0,1631.2503999797627,1631.23950001318,True,False
17,2,243.5922913000104,circle,"(-480.0, -270.0)",0,1648.2852000044659,1648.2743000378832,True,False
17,2,243.60751050000545,circle,"(-480.0, -270.0)",0,1663.5043999995105,1663.4935000329278,True,False
17,2,243.62530369998422,circle,"(-480.0, -270.0)",0,1681.2975999782793,1681.2867000116967,True,False
17,2,243.64096190000419,circle,"(-480.0, -270.0)",0,1696.9557999982499,1696.9449000316672,True,False
17,2,243.6588330999948,circle,"(-480.0, -270.0)",0,1714.8269999888726,1714.81610002229,True,False
17,2,243.67454259999795,circle,"(-480.0, -270.0)",0,1730.536499992013,1730.5256000254303,True,False
17,2,243.69180919998325,circle,"(-480.0, -270.0)",0,1747.8030999773182,1747.7922000107355,True,False
17,2,243.707702899992,circle,"(-480.0, -270.0)",0,1763.6967999860644,1763.6859000194818,True,False
17,2,243.72501180000836,circle,"(-480.0, -270.0)",0,1781.0057000024244,1780.9948000358418,True,False
17,2,244.02521920000436,star,"(-480.0, 270.0)",250.34299999242648,2081.213099998422,2081.2022000318393,False,True
17,3,244.29377739998745,star,"(-480.0, 270.0)",265.92380000511184,2349.771299981512,268.55819998309016,True,False
17,3,244.31076789996587,star,"(-480.0, 270.0)",0,2366.7617999599315,285.54869996150956,True,False
17,3,244.32525870000245,star,"(-480.0, 270.0)",0,2381.2525999965146,300.03949999809265,True,False
17,3,244.34163839998655,star,"(-480.0, 270.0)",0,2397.6322999806143,316.41919998219237,True,False
17,3,244.35875809995923,star,"(-480.0, 270.0)",0,2414.751999953296,333.53889995487407,True,False
17,3,244.37510599999223,star,"(-480.0, 270.0)",0,2431.099899986293,349.8867999878712,True,False
17,3,244.39256509998813,star,"(-480.0, 270.0)",0,2448.558999982197,367.34589998377487,True,False
17,3,244.40769429999636,star,"(-480.0, 270.0)",0,2463.688199990429,382.475099992007,True,False
17,3,244.42473609995795,star,"(-480.0, 270.0)",0,2480.7299999520183,399.5168999535963,True,False
17,3,244.4409561000066,star,"(-480.0, 270.0)",0,2496.950000000652,415.73690000222996,True,False
17,3,244.45839609997347,star,"(-480.0, 270.0)",0,2514.389999967534,433.1768999691121,True,False
17,3,244.47393739997642,star,"(-480.0, 270.0)",0,2529.9312999704853,448.7181999720633,True,False
17,3,244.4913447999861,star,"(-480.0, 270.0)",0,2547.3386999801733,466.1255999817513,True,False
17,3,244.50756249995902,star,"(-480.0, 270.0)",0,2563.556399953086,482.34329995466396,True,False
17,3,244.52508779999334,star,"(-480.0, 270.0)",0,2581.081699987408,499.8685999889858,True,False
17,3,244.54164650000166,star,"(-480.0, 270.0)",0,2597.6403999957256,516.4272999973036,True,False
17,3,244.55873339995742,star,"(-480.0, 270.0)",0,2614.7272999514826,533.5141999530606,True,False
17,3,244.57487740000943,star,"(-480.0, 270.0)",0,2630.8713000034913,549.6582000050694,True,False
17,3,244.59190359996865,star,"(-480.0, 270.0)",0,2647.89749996271,566.6843999642879,True,False
17,3,244.60813529998995,star,"(-480.0, 270.0)",0,2664.1291999840178,582.9160999855958,True,False
17,3,244.6251939999638,star,"(-480.0, 270.0)",0,2681.1878999578767,599.9747999594547,True,False
17,3,244.64154609997058,star,"(-480.0, 270.0)",0,2697.539999964647,616.326899966225,True,False
17,3,244.65786440001102,star,"(-480.0, 270.0)",0,2713.8583000050858,632.6452000066638,True,False
17,3,244.67406569997547,star,"(-480.0, 270.0)",0,2730.059599969536,648.8464999711141,True,False
17,3,244.69142599997576,star,"(-480.0, 270.0)",0,2747.4198999698274,666.2067999714054,True,False
17,3,244.70771270000841,star,"(-480.0, 270.0)",0,2763.706600002479,682.4935000040568,True,False
17,3,244.7249166999827,star,"(-480.0, 270.0)",0,2780.910599976778,699.6974999783561,True,False
17,3,244.74065230000997,star,"(-480.0, 270.0)",0,2796.6462000040337,715.4331000056118,True,False
17,3,244.75796690001152,star,"(-480.0, 270.0)",0,2813.9608000055887,732.7477000071667,True,False
17,3,244.77481759997318,star,"(-480.0, 270.0)",0,2830.81149996724,749.5983999688178,True,False
17,3,244.79177409998374,star,"(-480.0, 270.0)",0,2847.7679999778047,766.5548999793828,True,False
17,3,244.8125726999715,star,"(-480.0, 270.0)",0,2868.566599965561,787.3534999671392,True,False
17,3,244.82504179998068,star,"(-480.0, 270.0)",0,2881.0356999747455,799.8225999763235,True,False
17,3,244.8413520999602,star,"(-480.0, 270.0)",0,2897.3459999542683,816.1328999558464,True,False
17,3,244.85834769997746,star,"(-480.0, 270.0)",0,2914.3415999715216,833.1284999730997,True,False
17,3,244.87468060001265,star,"(-480.0, 270.0)",0,2930.6745000067167,849.4614000082947,True,False
17,3,244.89115939999465,star,"(-480.0, 270.0)",0,2947.153299988713,865.9401999902911,True,False
17,3,244.90698540001176,star,"(-480.0, 270.0)",0,2962.979300005827,881.7662000074051,True,False
17,3,244.92524349997984,star,"(-480.0, 270.0)",0,2981.2373999739066,900.0242999754846,True,False
17,3,244.94093959999736,star,"(-480.0, 270.0)",0,2996.933499991428,915.7203999930061,True,False
17,3,244.95793669996783,star,"(-480.0, 270.0)",0,3013.9305999618955,932.7174999634735,True,False
17,3,244.97388969996246,star,"(-480.0, 270.0)",0,3029.88359995652,948.6704999580979,True,False
17,3,244.99147529999027,star,"(-480.0, 270.0)",0,3047.4691999843344,966.2560999859124,True,False
17,3,245.00725949998014,star,"(-480.0, 270.0)",0,3063.253399974201,982.0402999757789,True,False
17,3,245.02483909996226,star,"(-480.0, 270.0)",0,3080.8329999563284,999.6198999579065,True,False
17,3,245.04147789999843,star,"(-480.0, 270.0)",0,3097.4717999924906,1016.2586999940686,True,False
17,3,245.05851599999005,star,"(-480.0, 270.0)",0,3114.509899984114,1033.296799985692,True,False
17,3,245.07481469999766,star,"(-480.0, 270.0)",0,3130.808599991724,1049.595499993302,True,False
17,3,245.0919944999623,star,"(-480.0, 270.0)",0,3147.9883999563754,1066.7752999579534,True,False
17,3,245.10839800001122,star,"(-480.0, 270.0)",0,3164.3919000052847,1083.1788000068627,True,False
17,3,245.12509970000247,star,"(-480.0, 270.0)",0,3181.0935999965295,1099.8804999981076,True,False
17,3,245.14131909998832,star,"(-480.0, 270.0)",0,3197.312999982387,1116.0998999839649,True,False
17,3,245.15776679996634,star,"(-480.0, 270.0)",0,3213.760699960403,1132.5475999619812,True,False
17,3,245.1738997999928,star,"(-480.0, 270.0)",0,3229.89369998686,1148.6805999884382,True,False
17,3,245.19127720000688,star,"(-480.0, 270.0)",0,3247.271100000944,1166.058000002522,True,False
17,3,245.20765940001002,star,"(-480.0, 270.0)",0,3263.65330000408,1182.440200005658,True,False
17,3,245.22458320000442,star,"(-480.0, 270.0)",0,3280.5770999984816,1199.3640000000596,True,False
17,3,245.24044089997187,star,"(-480.0, 270.0)",0,3296.4347999659367,1215.2216999675147,True,False
17,3,245.25794709997717,star,"(-480.0, 270.0)",0,3313.940999971237,1232.727899972815,True,False
17,3,245.2746643999708,star,"(-480.0, 270.0)",0,3330.6582999648526,1249.4451999664307,True,False
17,3,245.29165189998457,star,"(-480.0, 270.0)",0,3347.645799978636,1266.4326999802142,True,False
17,3,245.3079458999564,star,"(-480.0, 270.0)",0,3363.939799950458,1282.7266999520361,True,False
17,3,245.32501709996723,star,"(-480.0, 270.0)",0,3381.0109999612905,1299.7978999628685,True,False
17,3,245.34154629998375,star,"(-480.0, 270.0)",0,3397.5401999778114,1316.3270999793895,True,False
17,3,245.3576774999965,star,"(-480.0, 270.0)",0,3413.6713999905623,1332.4582999921404,True,False
17,3,245.37825070001418,star,"(-480.0, 270.0)",0,3434.244600008242,1353.0315000098199,True,False
17,3,245.39129979995778,star,"(-480.0, 270.0)",0,3447.2936999518424,1366.0805999534205,True,False
17,3,245.40727540000807,star,"(-480.0, 270.0)",0,3463.269300002139,1382.056200003717,True,False
17,3,245.4246342999977,star,"(-480.0, 270.0)",0,3480.62819999177,1399.4150999933481,True,False
17,3,245.4404478999786,star,"(-480.0, 270.0)",0,3496.441799972672,1415.22869997425,True,False
17,3,245.4580169999972,star,"(-480.0, 270.0)",0,3514.0108999912627,1432.7977999928407,True,False
17,3,245.47376839997014,star,"(-480.0, 270.0)",0,3529.7622999642044,1448.5491999657825,True,False
17,3,245.49121810001088,star,"(-480.0, 270.0)",0,3547.212000004947,1465.9989000065252,True,False
17,3,245.50776249996852,star,"(-480.0, 270.0)",0,3563.7563999625854,1482.5432999641635,True,False
17,3,245.52493129996583,star,"(-480.0, 270.0)",0,3580.925199959893,1499.7120999614708,True,False
17,3,245.5412965999567,star,"(-480.0, 270.0)",0,3597.290499950759,1516.0773999523371,True,False
17,3,245.5582014999818,star,"(-480.0, 270.0)",0,3614.19539997587,1532.9822999774478,True,False
17,3,245.57449540001107,star,"(-480.0, 270.0)",0,3630.489300005138,1549.276200006716,True,False
17,3,245.59144039999228,star,"(-480.0, 270.0)",0,3647.434299986344,1566.2211999879219,True,False
17,3,245.6079051999841,star,"(-480.0, 270.0)",0,3663.8990999781527,1582.6859999797307,True,False
17,3,245.62472219998017,star,"(-480.0, 270.0)",0,3680.7160999742337,1599.5029999758117,True,False
17,3,245.64077319996431,star,"(-480.0, 270.0)",0,3696.767099958379,1615.5539999599569,True,False
17,3,245.65781249996508,star,"(-480.0, 270.0)",0,3713.8063999591395,1632.5932999607176,True,False
17,3,245.67394770000828,star,"(-480.0, 270.0)",0,3729.9416000023484,1648.7285000039265,True,False
17,3,245.69099889998324,star,"(-480.0, 270.0)",0,3746.9927999773063,1665.7796999788843,True,False
17,3,245.7069815999712,star,"(-480.0, 270.0)",0,3762.9754999652505,1681.7623999668285,True,False
17,3,245.7248095999821,star,"(-480.0, 270.0)",0,3780.803499976173,1699.590399977751,True,False
17,3,245.74104399996577,star,"(-480.0, 270.0)",0,3797.0378999598324,1715.8247999614105,True,False
17,3,245.7580663000117,star,"(-480.0, 270.0)",0,3814.0602000057697,1732.8471000073478,True,False
17,3,245.7744568999624,star,"(-480.0, 270.0)",0,3830.450799956452,1749.2376999580301,True,False
17,3,245.79147569998167,star,"(-480.0, 270.0)",0,3847.4695999757387,1766.2564999773167,True,False
17,3,245.80773689999478,star,"(-480.0, 270.0)",0,3863.7307999888435,1782.5176999904215,True,False
17,3,245.82486279995646,star,"(-480.0, 270.0)",0,3880.8566999505274,1799.6435999521054,True,False
17,3,248.92349600000307,t,"(480.0, 270.0)",266.0213999915868,6979.489899997134,4898.276799998712,False,True
17,4,252.28909049998038,cross,"(480.0, -270.0)",250.30870002228767,10345.08439997444,3365.5944999773055,False,True
