trial_num,selection_num,timestamp,shape,position,fixation_duration_ms,rt_from_trial_start_ms,rt_from_previous_selection_ms,queued_selection,was_executed
13,1,1299.4627367000212,circle,"(-480.0, -270.0)",0,0.011700030881911516,0.011700030881911516,False,True
13,2,1302.407939800003,star,"(-480.0, 270.0)",250.05259999306872,2945.2148000127636,2945.2030999818817,False,True
14,1,1311.7085648999782,circle,"(-480.0, -270.0)",0,0.011299969628453255,0.011299969628453255,False,True
14,2,1311.9716163999983,star,"(-480.0, 270.0)",261.59239996923134,263.0627999897115,263.05150002008304,True,False
14,2,1311.9904663999914,star,"(-480.0, 270.0)",0,281.9127999828197,281.90150001319125,True,False
14,2,1312.0050238000113,star,"(-480.0, 270.0)",0,296.4702000026591,296.45890003303066,True,False
14,2,1312.0215899000177,star,"(-480.0, 270.0)",0,313.03630000911653,313.0250000394881,True,False
14,2,1312.03828779998,star,"(-480.0, 270.0)",0,329.7341999714263,329.7229000017978,True,False
14,2,1312.0550412000157,star,"(-480.0, 270.0)",0,346.48760000709444,346.476300037466,True,False
14,2,1312.071633399988,star,"(-480.0, 270.0)",0,363.0797999794595,363.06850000983104,True,False
14,2,1312.0882924000034,star,"(-480.0, 270.0)",0,379.7387999948114,379.72750002518296,True,False
14,2,1312.1050596000277,star,"(-480.0, 270.0)",0,396.50600001914427,396.4947000495158,True,False
14,2,1312.121746000019,star,"(-480.0, 270.0)",0,413.19240001030266,413.1811000406742,True,False
14,2,1312.138222699985,star,"(-480.0, 270.0)",0,429.66909997630864,429.6578000066802,True,False
14,2,1312.1550897000125,star,"(-480.0, 270.0)",0,446.53610000386834,446.5248000342399,True,False
14,2,1312.171956599981,star,"(-480.0, 270.0)",0,463.40299997245893,463.3917000028305,True,False
14,2,1312.1884866000037,star,"(-480.0, 270.0)",0,479.93299999507144,479.921700025443,True,False
14,2,1312.2051073000184,star,"(-480.0, 270.0)",0,496.55370000982657,496.5424000401981,True,False
14,2,1312.221594600007,star,"(-480.0, 270.0)",0,513.0409999983385,513.0297000287101,True,False
14,2,1312.2382915000198,star,"(-480.0, 270.0)",0,529.7379000112414,529.726600041613,True,False
14,2,1312.2550531000015,star,"(-480.0, 270.0)",0,546.4994999929331,546.4882000233047,True,False
14,2,1312.271829699981,star,"(-480.0, 270.0)",0,563.2760999724269,563.2648000027984,True,False
14,2,1312.2882545000175,star,"(-480.0, 270.0)",0,579.700900008902,579.6896000392735,True,False
14,2,1312.3049888000241,star,"(-480.0, 270.0)",0,596.4352000155486,596.4239000459202,True,False
14,2,1312.3217287000152,star,"(-480.0, 270.0)",0,613.1751000066288,613.1638000370003,True,False
14,2,1312.323328999977,circle,"(-480.0, -270.0)",266.7220999719575,614.7753999684937,614.7640999988653,True,False
14,2,1312.3401024999912,circle,"(-480.0, -270.0)",0,631.5488999825902,631.5376000129618,True,False
14,2,1312.3547254999867,circle,"(-480.0, -270.0)",0,646.1718999780715,646.160600008443,True,False
14,2,1312.3716499999864,circle,"(-480.0, -270.0)",0,663.0963999778032,663.0851000081748,True,False
14,2,1312.3881623999914,circle,"(-480.0, -270.0)",0,679.608799982816,679.5975000131875,True,False
14,2,1312.4048146000132,circle,"(-480.0, -270.0)",0,696.261000004597,696.2497000349686,True,False
14,2,1312.4214589999756,circle,"(-480.0, -270.0)",0,712.905399966985,712.8940999973565,True,False
14,2,1312.438141599996,circle,"(-480.0, -270.0)",0,729.587999987416,729.5767000177875,True,False
14,2,1312.4548071000027,circle,"(-480.0, -270.0)",0,746.2534999940544,746.242200024426,True,False
14,2,1312.4712783999857,circle,"(-480.0, -270.0)",0,762.7247999771498,762.7135000075214,True,False
14,2,1312.4880609000102,circle,"(-480.0, -270.0)",0,779.5073000015691,779.4960000319406,True,False
14,2,1312.5048108000192,circle,"(-480.0, -270.0)",0,796.2572000105865,796.2459000409581,True,False
14,2,1312.521475000016,circle,"(-480.0, -270.0)",0,812.9214000073262,812.9101000376977,True,False
14,2,1312.5382422999828,circle,"(-480.0, -270.0)",0,829.6886999742128,829.6774000045843,True,False
14,2,1312.5546590000158,circle,"(-480.0, -270.0)",0,846.1054000072181,846.0941000375897,True,False
14,2,1312.5713584999903,circle,"(-480.0, -270.0)",0,862.8048999817111,862.7936000120826,True,False
14,2,1312.5880185000133,circle,"(-480.0, -270.0)",0,879.4649000046775,879.453600035049,True,False
14,2,1312.604676900024,circle,"(-480.0, -270.0)",0,896.1233000154607,896.1120000458322,True,False
14,2,1312.6214850000106,circle,"(-480.0, -270.0)",0,912.9314000019804,912.9201000323519,True,False
14,2,1312.6380038000061,circle,"(-480.0, -270.0)",0,929.4501999975182,929.4389000278898,True,False
14,2,1312.654731800023,circle,"(-480.0, -270.0)",0,946.1782000144012,946.1669000447728,True,False
14,2,1312.6714659000281,circle,"(-480.0, -270.0)",0,962.912300019525,962.9010000498965,True,False
14,2,1312.6881024999893,circle,"(-480.0, -270.0)",0,979.5488999807276,979.5376000110991,True,False
14,2,1312.7047908999957,circle,"(-480.0, -270.0)",0,996.237299987115,996.2260000174865,True,False
14,2,1312.7214870000025,circle,"(-480.0, -270.0)",0,1012.9333999939263,1012.9221000242978,True,False
14,2,1312.738660299976,circle,"(-480.0, -270.0)",0,1030.1066999672912,1030.0953999976628,True,False
14,2,1312.7547145999852,circle,"(-480.0, -270.0)",0,1046.1609999765642,1046.1497000069357,True,False
14,2,1312.7714357000077,circle,"(-480.0, -270.0)",0,1062.8820999991149,1062.8708000294864,True,False
14,2,1312.7881280999864,circle,"(-480.0, -270.0)",0,1079.5744999777526,1079.563200008124,True,False
14,2,1312.8047131000203,circle,"(-480.0, -270.0)",0,1096.1595000117086,1096.1482000420801,True,False
14,2,1312.8213163000182,circle,"(-480.0, -270.0)",0,1112.7627000096254,1112.751400039997,True,False
14,2,1312.8381126000313,circle,"(-480.0, -270.0)",0,1129.5590000227094,1129.547700053081,True,False
14,2,1312.8547010999755,circle,"(-480.0, -270.0)",0,1146.1474999669008,1146.1361999972723,True,False
14,2,1312.8713908999925,circle,"(-480.0, -270.0)",0,1162.8372999839485,1162.82600001432,True,False
14,2,1312.888257500017,circle,"(-480.0, -270.0)",0,1179.7039000084624,1179.692600038834,True,False
14,2,1312.90459380002,circle,"(-480.0, -270.0)",0,1196.040200011339,1196.0289000417106,True,False
14,2,1312.9212314999895,circle,"(-480.0, -270.0)",0,1212.6778999809176,1212.6666000112891,True,False
14,2,1312.9380965000018,circle,"(-480.0, -270.0)",0,1229.5428999932483,1229.5316000236198,True,False
14,2,1312.954790799995,circle,"(-480.0, -270.0)",0,1246.2371999863535,1246.225900016725,True,False
14,2,1312.9714914999786,circle,"(-480.0, -270.0)",0,1262.9378999699838,1262.9266000003554,True,False
14,2,1312.988124800031,circle,"(-480.0, -270.0)",0,1279.571200022474,1279.5599000528455,True,False
14,2,1313.004626400012,circle,"(-480.0, -270.0)",0,1296.0728000034578,1296.0615000338294,True,False
14,2,1313.0210843000095,circle,"(-480.0, -270.0)",0,1312.5307000009343,1312.5194000313058,True,False
14,2,1313.0379482000135,circle,"(-480.0, -270.0)",0,1329.394600004889,1329.3833000352606,True,False
14,2,1313.0546137000201,circle,"(-480.0, -270.0)",0,1346.0601000115275,1346.048800041899,True,False
14,2,1313.071325899975,circle,"(-480.0, -270.0)",0,1362.7722999663092,1362.7609999966808,True,False
14,2,1313.0878753000288,circle,"(-480.0, -270.0)",0,1379.3217000202276,1379.3104000505991,True,False
14,2,1313.1045320000267,circle,"(-480.0, -270.0)",0,1395.9784000180662,1395.9671000484377,True,False
14,2,1313.1211826999788,circle,"(-480.0, -270.0)",0,1412.6290999702178,1412.6178000005893,True,False
14,2,1313.1378607000224,circle,"(-480.0, -270.0)",0,1429.3071000138298,1429.2958000442013,True,False
14,2,1313.1546780000208,circle,"(-480.0, -270.0)",0,1446.124400012195,1446.1131000425667,True,False
14,2,1313.1712271000142,circle,"(-480.0, -270.0)",0,1462.6735000056215,1462.662200035993,True,False
14,2,1313.1884129000246,circle,"(-480.0, -270.0)",0,1479.85930001596,1479.8480000463314,True,False
14,2,1313.204770900018,circle,"(-480.0, -270.0)",0,1496.217300009448,1496.2060000398196,True,False
14,2,1313.221536600031,circle,"(-480.0, -270.0)",0,1512.9830000223592,1512.9717000527307,True,False
14,2,1313.2383079000283,circle,"(-480.0, -270.0)",0,1529.7543000197038,1529.7430000500754,True,False
14,2,1313.239927800023,star,"(-480.0, 270.0)",266.80270000360906,1531.3742000143975,1531.362900044769,True,False
14,2,1313.2571408000076,star,"(-480.0, 270.0)",0,1548.5871999990195,1548.575900029391,True,False
14,2,1313.2714130000095,star,"(-480.0, 270.0)",0,1562.8594000008889,1562.8481000312604,True,False
14,2,1313.2880761999986,star,"(-480.0, 270.0)",0,1579.522599990014,1579.5113000203855,True,False
14,2,1313.308305100014,star,"(-480.0, 270.0)",0,1599.7515000053681,1599.7402000357397,True,False
14,2,1313.3211152000003,star,"(-480.0, 270.0)",0,1612.56159999175,1612.5503000221215,True,False
14,2,1313.337692399975,star,"(-480.0, 270.0)",0,1629.138799966313,1629.1274999966845,True,False
14,2,1313.354515700019,star,"(-480.0, 270.0)",0,1645.9621000103652,1645.9508000407368,True,False
14,2,1313.3712488000165,star,"(-480.0, 270.0)",0,1662.6952000078745,1662.683900038246,True,False
14,2,1313.3877853000304,star,"(-480.0, 270.0)",0,1679.2317000217736,1679.2204000521451,True,False
14,2,1313.4045266999747,star,"(-480.0, 270.0)",0,1695.9730999660678,1695.9617999964394,True,False
14,2,1313.4212664000224,star,"(-480.0, 270.0)",0,1712.7128000138327,1712.7015000442043,True,False
14,2,1313.4380584000028,star,"(-480.0, 270.0)",0,1729.5047999941744,1729.493500024546,True,False
14,2,1313.4545796000166,star,"(-480.0, 270.0)",0,1746.026000007987,1746.0147000383586,True,False
14,2,1313.4713330999948,star,"(-480.0, 270.0)",0,1762.779499986209,1762.7682000165805,True,False
14,2,1313.4878719000262,star,"(-480.0, 270.0)",0,1779.3183000176214,1779.307000047993,True,False
14,2,1313.5047202000278,star,"(-480.0, 270.0)",0,1796.1666000192054,1796.155300049577,True,False
14,2,1313.5374417999992,star,"(-480.0, 270.0)",278.6686000181362,1828.8881999906152,1828.8769000209868,False,True
14,3,1313.8051032000221,star,"(-480.0, 270.0)",265.43980004498735,2096.5496000135317,267.6614000229165,True,False
14,3,1313.822780699993,star,"(-480.0, 270.0)",0,2114.2270999844186,285.33889999380335,True,False
14,3,1313.8377916000318,star,"(-480.0, 270.0)",0,2129.2380000231788,300.3498000325635,True,False
14,3,1313.854474199994,star,"(-480.0, 270.0)",0,2145.920599985402,317.03239999478683,True,False
14,3,1313.8710587000242,star,"(-480.0, 270.0)",0,2162.505100015551,333.6169000249356,True,False
14,3,1313.888005900022,star,"(-480.0, 270.0)",0,2179.4523000135086,350.5641000228934,True,False
14,3,1313.904899700021,star,"(-480.0, 270.0)",0,2196.346100012306,367.4579000216909,True,False
14,3,1313.9211962000118,star,"(-480.0, 270.0)",0,2212.6426000031643,383.754400012549,True,False
14,3,1313.9379665000015,star,"(-480.0, 270.0)",0,2229.4128999928944,400.52470000227913,True,False
14,3,1313.9543969000224,star,"(-480.0, 270.0)",0,2245.843300013803,416.9551000231877,True,False
14,3,1313.9709356999956,star,"(-480.0, 270.0)",0,2262.3820999870077,433.49389999639243,True,False
14,3,1313.9875780000002,star,"(-480.0, 270.0)",0,2279.024399991613,450.13620000099763,True,False
14,3,1314.0044765999774,star,"(-480.0, 270.0)",0,2295.9229999687523,467.034799978137,True,False
14,3,1314.0209831999964,star,"(-480.0, 270.0)",0,2312.4295999878086,483.54139999719337,True,False
14,3,1314.0376761999796,star,"(-480.0, 270.0)",0,2329.122599971015,500.23439998039976,True,False
14,3,1314.054285500024,star,"(-480.0, 270.0)",0,2345.7319000153802,516.843700024765,True,False
14,3,1314.0710331000155,star,"(-480.0, 270.0)",0,2362.4795000068843,533.5913000162691,True,False
14,3,1314.0875027999864,star,"(-480.0, 270.0)",0,2378.9491999777965,550.0609999871813,True,False
14,3,1314.104432800028,star,"(-480.0, 270.0)",0,2395.879200019408,566.9910000287928,True,False
14,3,1314.121559799998,star,"(-480.0, 270.0)",0,2413.006199989468,584.1179999988526,True,False
14,3,1314.1382129000267,star,"(-480.0, 270.0)",0,2429.659300018102,600.7711000274867,True,False
14,3,1314.1550183999934,star,"(-480.0, 270.0)",0,2446.464799984824,617.5765999942087,True,False
14,3,1314.1728600999922,star,"(-480.0, 270.0)",0,2464.3064999836497,635.4182999930345,True,False
14,3,1314.1885747999768,star,"(-480.0, 270.0)",0,2480.021199968178,651.1329999775626,True,False
14,3,1314.20445010002,star,"(-480.0, 270.0)",0,2495.8965000114404,667.0083000208251,True,False
14,3,1314.2211272999994,star,"(-480.0, 270.0)",0,2512.573699990753,683.6855000001378,True,False
14,3,1314.2391609000042,star,"(-480.0, 270.0)",0,2530.6072999956086,701.7191000049934,True,False
14,3,1314.2545221999753,star,"(-480.0, 270.0)",0,2545.968599966727,717.080399976112,True,False
14,3,1314.2709329000209,star,"(-480.0, 270.0)",0,2562.379300012253,733.491100021638,True,False
14,3,1314.287792099989,star,"(-480.0, 270.0)",0,2579.23849998042,750.3502999898046,True,False
14,3,1314.3044937999803,star,"(-480.0, 270.0)",0,2595.9401999716647,767.0519999810494,True,False
14,3,1314.3211371999932,star,"(-480.0, 270.0)",0,2612.583599984646,783.6953999940306,True,False
14,3,1314.3377831000253,star,"(-480.0, 270.0)",0,2629.229500016663,800.341300026048,True,False
14,3,1314.354531400022,star,"(-480.0, 270.0)",0,2645.9778000134975,817.0896000228822,True,False
14,3,1314.3710258000065,star,"(-480.0, 270.0)",0,2662.4721999978647,833.5840000072494,True,False
14,3,1314.3874691000092,star,"(-480.0, 270.0)",0,2678.915500000585,850.0273000099696,True,False
14,3,1314.4044845000026,star,"(-480.0, 270.0)",0,2695.930899993982,867.0427000033669,True,False
14,3,1314.4209094999824,star,"(-480.0, 270.0)",0,2712.3558999737725,883.4676999831572,True,False
14,3,1314.4376321000163,star,"(-480.0, 270.0)",0,2729.078500007745,900.1903000171296,True,False
14,3,1314.454820599989,star,"(-480.0, 270.0)",0,2746.266999980435,917.3787999898195,True,False
14,3,1314.471177599975,star,"(-480.0, 270.0)",0,2762.6239999663085,933.7357999756932,True,False
14,3,1314.4877805000287,star,"(-480.0, 270.0)",0,2779.2269000201486,950.3387000295334,True,False
14,3,1314.504209799983,star,"(-480.0, 270.0)",0,2795.6561999744736,966.7679999838583,True,False
14,3,1314.5211899999995,star,"(-480.0, 270.0)",0,2812.636399990879,983.7482000002638,True,False
14,3,1314.537778900005,star,"(-480.0, 270.0)",0,2829.225299996324,1000.3371000057086,True,False
14,3,1314.5541040999815,star,"(-480.0, 270.0)",0,2845.5504999728873,1016.6622999822721,True,False
14,3,1314.5712142999982,star,"(-480.0, 270.0)",0,2862.6606999896467,1033.7724999990314,True,False
14,3,1314.5877073000302,star,"(-480.0, 270.0)",0,2879.1537000215612,1050.265500030946,True,False
14,3,1314.604284400004,star,"(-480.0, 270.0)",0,2895.7307999953628,1066.8426000047475,True,False
14,3,1314.6209473999916,star,"(-480.0, 270.0)",0,2912.393799982965,1083.5055999923497,True,False
14,3,1314.6376811999944,star,"(-480.0, 270.0)",0,2929.1275999858044,1100.2393999951892,True,False
14,3,1314.6540703999926,star,"(-480.0, 270.0)",0,2945.516799984034,1116.628599993419,True,False
14,3,1314.670841299987,star,"(-480.0, 270.0)",0,2962.287699978333,1133.3994999877177,True,False
14,3,1314.6875538000022,star,"(-480.0, 270.0)",0,2979.0001999936067,1150.1120000029914,True,False
14,3,1314.7041107999976,star,"(-480.0, 270.0)",0,2995.55719998898,1166.6689999983646,True,False
14,3,1314.7208284999942,star,"(-480.0, 270.0)",0,3012.2748999856412,1183.386699995026,True,False
14,3,1314.7373202000163,star,"(-480.0, 270.0)",0,3028.766600007657,1199.8784000170417,True,False
14,3,1314.7539233000134,star,"(-480.0, 270.0)",0,3045.3697000048123,1216.481500014197,True,False
14,3,1314.7706785000046,star,"(-480.0, 270.0)",0,3062.124899995979,1233.2367000053637,True,False
14,3,1314.787187399983,star,"(-480.0, 270.0)",0,3078.633799974341,1249.7455999837257,True,False
14,3,1314.7889630999998,circle,"(-480.0, -270.0)",266.2610000115819,3080.4094999912195,1251.5213000006042,True,False
14,3,1314.806503699976,circle,"(-480.0, -270.0)",0,3097.95009996742,1269.0618999768049,True,False
14,3,1314.8213559000287,circle,"(-480.0, -270.0)",0,3112.802300020121,1283.9141000295058,True,False
14,3,1314.837863599998,circle,"(-480.0, -270.0)",0,3129.3099999893457,1300.4217999987304,True,False
14,3,1314.854791700025,circle,"(-480.0, -270.0)",0,3146.2381000164896,1317.3499000258744,True,False
14,3,1314.8724657000275,circle,"(-480.0, -270.0)",0,3163.9121000189334,1335.0239000283182,True,False
14,3,1314.888491299993,circle,"(-480.0, -270.0)",0,3179.9376999842934,1351.0494999936782,True,False
14,3,1314.904459399986,circle,"(-480.0, -270.0)",0,3195.9057999774814,1367.0175999868661,True,False
14,3,1314.9209928999771,circle,"(-480.0, -270.0)",0,3212.439299968537,1383.5510999779217,True,False
14,3,1314.9378853000235,circle,"(-480.0, -270.0)",0,3229.331700014882,1400.4435000242665,True,False
14,3,1314.9541808000067,circle,"(-480.0, -270.0)",0,3245.6271999981254,1416.7390000075102,True,False
14,3,1314.9706923000049,circle,"(-480.0, -270.0)",0,3262.138699996285,1433.25050000567,True,False
14,3,1314.9871322999825,circle,"(-480.0, -270.0)",0,3278.5786999738775,1449.6904999832623,True,False
14,3,1315.003775499994,circle,"(-480.0, -270.0)",0,3295.2218999853358,1466.3336999947205,True,False
14,3,1315.02030199999,circle,"(-480.0, -270.0)",0,3311.7483999812976,1482.8601999906823,True,False
14,3,1315.037037400005,circle,"(-480.0, -270.0)",0,3328.48379999632,1499.595600005705,True,False
14,3,1315.0537113000173,circle,"(-480.0, -270.0)",0,3345.1577000087127,1516.2695000180975,True,False
14,3,1315.0705584000098,circle,"(-480.0, -270.0)",0,3362.0048000011593,1533.116600010544,True,False
14,3,1315.0874159000232,circle,"(-480.0, -270.0)",0,3378.862300014589,1549.9741000239737,True,False
14,3,1315.1039743000292,circle,"(-480.0, -270.0)",0,3395.4207000206225,1566.5325000300072,True,False
14,3,1315.1204042999889,circle,"(-480.0, -270.0)",0,3411.8506999802776,1582.9624999896623,True,False
14,3,1315.1373373999959,circle,"(-480.0, -270.0)",0,3428.7837999872863,1599.895599996671,True,False
14,3,1315.1539386999793,circle,"(-480.0, -270.0)",0,3445.3850999707356,1616.4968999801204,True,False
14,3,1315.1706803999841,circle,"(-480.0, -270.0)",0,3462.126799975522,1633.2385999849066,True,False
14,3,1315.1873070999864,circle,"(-480.0, -270.0)",0,3478.7534999777563,1649.865299987141,True,False
14,3,1315.2041230000323,circle,"(-480.0, -270.0)",0,3495.569400023669,1666.6812000330538,True,False
14,3,1315.2203577000182,circle,"(-480.0, -270.0)",0,3511.8041000096127,1682.9159000189975,True,False
14,3,1315.2371165999793,circle,"(-480.0, -270.0)",0,3528.5629999707453,1699.67479998013,True,False
14,3,1315.253864999977,circle,"(-480.0, -270.0)",0,3545.311399968341,1716.4231999777257,True,False
14,3,1315.270449100004,circle,"(-480.0, -270.0)",0,3561.895499995444,1733.0073000048287,True,False
14,3,1315.2873715999885,circle,"(-480.0, -270.0)",0,3578.8179999799468,1749.9297999893315,True,False
14,3,1315.3035924999858,circle,"(-480.0, -270.0)",0,3595.038899977226,1766.1506999866106,True,False
14,3,1315.320487399993,circle,"(-480.0, -270.0)",0,3611.9337999843992,1783.045599993784,True,False
14,3,1315.3369720000192,circle,"(-480.0, -270.0)",0,3628.4184000105597,1799.5302000199445,True,False
14,3,1315.3390053000185,circle,"(-480.0, -270.0)",530.7513999869116,3630.4517000098713,1801.563500019256,False,True
14,4,1318.5526107000187,star,"(-480.0, 270.0)",250.02000003587455,6844.0571000101045,3213.605400000233,False,True
15,1,1322.6716612000018,circle,"(-480.0, -270.0)",0,0.01650000922381878,0.01650000922381878,False,True
15,2,1322.934849400015,circle,"(-480.0, -270.0)",261.3595000002533,263.2047000224702,263.1882000132464,True,False
15,2,1322.9535802999744,circle,"(-480.0, -270.0)",0,281.9355999818072,281.91909997258335,True,False
15,2,1322.968188000028,circle,"(-480.0, -270.0)",0,296.54330003540963,296.5268000261858,True,False
15,2,1322.9851376999868,circle,"(-480.0, -270.0)",0,313.492999994196,313.4764999849722,True,False
15,2,1323.0018249999848,circle,"(-480.0, -270.0)",0,330.18029999220744,330.1637999829836,True,False
15,2,1323.0183118000277,circle,"(-480.0, -270.0)",0,346.6671000351198,346.650600025896,True,False
15,2,1323.0354087000014,circle,"(-480.0, -270.0)",0,363.76400000881404,363.7474999995902,True,False
15,2,1323.051628199988,circle,"(-480.0, -270.0)",0,379.9834999954328,379.966999986209,True,False
15,2,1323.0685134999803,circle,"(-480.0, -270.0)",0,396.86879998771474,396.8522999784909,True,False
15,2,1323.0847440999933,circle,"(-480.0, -270.0)",0,413.0994000006467,413.0828999914229,True,False
15,2,1323.1010392000317,circle,"(-480.0, -270.0)",0,429.3945000390522,429.3780000298284,True,False
15,2,1323.1181632999796,circle,"(-480.0, -270.0)",0,446.51859998703003,446.5020999778062,True,False
15,2,1323.1348637000192,circle,"(-480.0, -270.0)",0,463.21900002658367,463.20250001735985,True,False
15,2,1323.1515648000059,circle,"(-480.0, -270.0)",0,479.9201000132598,479.903600004036,True,False
15,2,1323.1681795999757,circle,"(-480.0, -270.0)",0,496.5348999830894,496.5183999738656,True,False
15,2,1323.1848003999912,circle,"(-480.0, -270.0)",0,513.155699998606,513.1391999893822,True,False
15,2,1323.2014958999935,circle,"(-480.0, -270.0)",0,529.8512000008486,529.8346999916248,True,False
15,2,1323.2182165000122,circle,"(-480.0, -270.0)",0,546.571800019592,546.5553000103682,True,False
15,2,1323.2347721999977,circle,"(-480.0, -270.0)",0,563.1275000050664,563.1109999958426,True,False
15,2,1323.2511597999837,circle,"(-480.0, -270.0)",0,579.515099991113,579.4985999818891,True,False
15,2,1323.26815920003,circle,"(-480.0, -270.0)",0,596.5145000373013,596.4980000280775,True,False
15,2,1323.2849623999791,circle,"(-480.0, -270.0)",0,613.31769998651,613.3011999772862,True,False
15,2,1323.3016306000063,circle,"(-480.0, -270.0)",0,629.9859000137076,629.9694000044838,True,False
15,2,1323.3181845999788,circle,"(-480.0, -270.0)",0,646.5398999862373,646.5233999770135,True,False
15,2,1323.334926099982,circle,"(-480.0, -270.0)",0,663.2813999895006,663.2648999802768,True,False
15,2,1323.3514702999964,circle,"(-480.0, -270.0)",0,679.8256000038236,679.8090999945998,True,False
15,2,1323.3680261999834,circle,"(-480.0, -270.0)",0,696.3814999908209,696.3649999815971,True,False
15,2,1323.384701700008,circle,"(-480.0, -270.0)",0,713.0570000153966,713.0405000061728,True,False
15,2,1323.4010048999917,circle,"(-480.0, -270.0)",0,729.3601999990642,729.3436999898404,True,False
15,2,1323.4181660999893,circle,"(-480.0, -270.0)",0,746.5213999967091,746.5048999874853,True,False
15,2,1323.4347865000018,circle,"(-480.0, -270.0)",0,763.1418000091799,763.125299999956,True,False
15,2,1323.451353100012,circle,"(-480.0, -270.0)",0,779.7084000194445,779.6919000102207,True,False
15,2,1323.468145299994,circle,"(-480.0, -270.0)",0,796.5006000013091,796.4840999920852,True,False
15,2,1323.4848816000158,circle,"(-480.0, -270.0)",0,813.2369000231847,813.2204000139609,True,False
15,2,1323.5014679000014,circle,"(-480.0, -270.0)",0,829.8232000088319,829.8066999996081,True,False
15,2,1323.5181128000258,circle,"(-480.0, -270.0)",0,846.4681000332348,846.451600024011,True,False
15,2,1323.5346171000274,circle,"(-480.0, -270.0)",0,862.9724000347778,862.955900025554,True,False
15,2,1323.551205500029,circle,"(-480.0, -270.0)",0,879.5608000364155,879.5443000271916,True,False
15,2,1323.567660700006,circle,"(-480.0, -270.0)",0,896.0160000133328,895.999500004109,True,False
15,2,1323.5846502999775,circle,"(-480.0, -270.0)",0,913.0055999848992,912.9890999756753,True,False
15,2,1323.6011245999835,circle,"(-480.0, -270.0)",0,929.479899990838,929.4633999816142,True,False
15,2,1323.6179661999922,circle,"(-480.0, -270.0)",0,946.3214999996126,946.3049999903888,True,False
15,2,1323.6345703999978,circle,"(-480.0, -270.0)",0,962.9257000051439,962.9091999959201,True,False
15,2,1323.6511541000218,circle,"(-480.0, -270.0)",0,979.5094000292011,979.4929000199772,True,False
15,2,1323.6679032000247,circle,"(-480.0, -270.0)",0,996.2585000321269,996.2420000229031,True,False
15,2,1323.6850736999768,circle,"(-480.0, -270.0)",0,1013.4289999841712,1013.4124999749474,True,False
15,2,1323.7013655999908,circle,"(-480.0, -270.0)",0,1029.7208999982104,1029.7043999889866,True,False
15,2,1323.7179286999744,circle,"(-480.0, -270.0)",0,1046.2839999818243,1046.2674999726005,True,False
15,2,1323.7348862999934,circle,"(-480.0, -270.0)",0,1063.2416000007652,1063.2250999915414,True,False
15,2,1323.751304299978,circle,"(-480.0, -270.0)",0,1079.6595999854617,1079.6430999762379,True,False
15,2,1323.7676792999846,circle,"(-480.0, -270.0)",0,1096.034599991981,1096.0180999827571,True,False
15,2,1323.785030500032,circle,"(-480.0, -270.0)",0,1113.3858000393957,1113.3693000301719,True,False
15,2,1323.801630300004,circle,"(-480.0, -270.0)",0,1129.9856000114232,1129.9691000021994,True,False
15,2,1323.8175793000264,circle,"(-480.0, -270.0)",0,1145.9346000337973,1145.9181000245735,True,False
15,2,1323.834725200024,circle,"(-480.0, -270.0)",0,1163.0805000313558,1163.064000022132,True,False
15,2,1323.850961100019,circle,"(-480.0, -270.0)",0,1179.316400026437,1179.299900017213,True,False
15,2,1323.8682196000009,circle,"(-480.0, -270.0)",0,1196.5749000082724,1196.5583999990486,True,False
15,2,1323.8844625999918,circle,"(-480.0, -270.0)",0,1212.8178999992087,1212.801399989985,True,False
15,2,1323.9012893000036,circle,"(-480.0, -270.0)",0,1229.6446000109427,1229.6281000017188,True,False
15,2,1323.9181865000282,circle,"(-480.0, -270.0)",0,1246.5418000356294,1246.5253000264056,True,False
15,2,1323.9348172000027,circle,"(-480.0, -270.0)",0,1263.1725000101142,1263.1560000008903,True,False
15,2,1323.9518270000117,circle,"(-480.0, -270.0)",0,1280.182300019078,1280.1658000098541,True,False
15,2,1323.9685181999812,circle,"(-480.0, -270.0)",0,1296.8734999885783,1296.8569999793544,True,False
15,2,1323.9849505000166,circle,"(-480.0, -270.0)",0,1313.3058000239544,1313.2893000147305,True,False
15,2,1324.0018595000147,circle,"(-480.0, -270.0)",0,1330.2148000220768,1330.198300012853,True,False
15,2,1324.018412799982,circle,"(-480.0, -270.0)",0,1346.7680999892764,1346.7515999800526,True,False
15,2,1324.0346658999915,circle,"(-480.0, -270.0)",0,1363.0211999989115,1363.0046999896877,True,False
15,2,1324.052352000028,circle,"(-480.0, -270.0)",0,1380.707300035283,1380.6908000260592,True,False
15,2,1324.0684535999899,circle,"(-480.0, -270.0)",0,1396.8088999972679,1396.792399988044,True,False
15,2,1324.085322000028,circle,"(-480.0, -270.0)",0,1413.6773000354879,1413.660800026264,True,False
15,2,1324.102002599975,circle,"(-480.0, -270.0)",0,1430.3578999824822,1430.3413999732584,True,False
15,2,1324.118613699975,circle,"(-480.0, -270.0)",0,1446.9689999823458,1446.952499973122,True,False
15,2,1324.1353223000187,circle,"(-480.0, -270.0)",0,1463.6776000261307,1463.6611000169069,True,False
15,2,1324.1519872000208,circle,"(-480.0, -270.0)",0,1480.3425000282004,1480.3260000189766,True,False
15,2,1324.168829000031,circle,"(-480.0, -270.0)",0,1497.184300038498,1497.167800029274,True,False
15,2,1324.184759100026,circle,"(-480.0, -270.0)",0,1513.1144000333734,1513.0979000241496,True,False
15,2,1324.201858000015,circle,"(-480.0, -270.0)",0,1530.2133000222966,1530.1968000130728,True,False
15,2,1324.2184550000238,circle,"(-480.0, -270.0)",0,1546.8103000312112,1546.7938000219874,True,False
15,2,1324.2353802000289,circle,"(-480.0, -270.0)",0,1563.7355000362732,1563.7190000270493,True,False
15,2,1324.2522622999968,circle,"(-480.0, -270.0)",0,1580.6176000041887,1580.601099994965,True,False
15,2,1324.2686381000094,circle,"(-480.0, -270.0)",0,1596.9934000167996,1596.9769000075758,True,False
15,2,1324.2851311999839,circle,"(-480.0, -270.0)",0,1613.486499991268,1613.469999982044,True,False
15,2,1324.3017599000013,circle,"(-480.0, -270.0)",0,1630.1152000087313,1630.0986999995075,True,False
15,2,1324.3179699999746,circle,"(-480.0, -270.0)",0,1646.3252999819815,1646.3087999727577,True,False
15,2,1324.3348324000253,circle,"(-480.0, -270.0)",0,1663.1877000327222,1663.1712000234984,True,False
15,2,1324.351703500026,circle,"(-480.0, -270.0)",0,1680.0588000332937,1680.0423000240698,True,False
15,2,1324.3686188000138,circle,"(-480.0, -270.0)",0,1696.9741000211798,1696.957600011956,True,False
15,2,1324.385103699984,circle,"(-480.0, -270.0)",0,1713.458999991417,1713.442499982193,True,False
15,2,1324.4019373999909,circle,"(-480.0, -270.0)",0,1730.2926999982446,1730.2761999890208,True,False
15,2,1324.4183606000151,circle,"(-480.0, -270.0)",0,1746.7159000225365,1746.6994000133127,True,False
15,2,1324.4351233000052,circle,"(-480.0, -270.0)",0,1763.4786000126041,1763.4621000033803,True,False
15,2,1324.4521048000315,circle,"(-480.0, -270.0)",0,1780.4601000389084,1780.4436000296846,True,False
16,1,1329.9691928999964,circle,"(-480.0, -270.0)",0,0.011899974197149277,0.011899974197149277,False,True
16,2,1330.2322452000226,star,"(-480.0, 270.0)",261.62020000629127,263.0642000003718,263.05230002617463,True,False
16,2,1330.2510489000124,star,"(-480.0, 270.0)",0,281.8678999901749,281.85600001597777,True,False
16,2,1330.265515999985,star,"(-480.0, 270.0)",0,296.33499996270984,296.3230999885127,True,False
16,2,1330.2824366000132,star,"(-480.0, 270.0)",0,313.25559999095276,313.2437000167556,True,False
16,2,1330.2991051999852,star,"(-480.0, 270.0)",0,329.9241999629885,329.91229998879135,True,False
16,2,1330.3157770999824,star,"(-480.0, 270.0)",0,346.59609996015206,346.5841999859549,True,False
16,2,1330.3321302999975,star,"(-480.0, 270.0)",0,362.94929997529835,362.9374000011012,True,False
16,2,1330.3489239999908,star,"(-480.0, 270.0)",0,379.7429999685846,379.7310999943875,True,False
16,2,1330.365594199975,star,"(-480.0, 270.0)",0,396.41319995280355,396.4012999786064,True,False
16,2,1330.3822310999967,star,"(-480.0, 270.0)",0,413.05009997449815,413.038200000301,True,False
16,2,1330.399048899999,star,"(-480.0, 270.0)",0,429.86789997667074,429.8560000024736,True,False
16,2,1330.4155753999949,star,"(-480.0, 270.0)",0,446.3943999726325,446.3824999984354,True,False
16,2,1330.4323425000184,star,"(-480.0, 270.0)",0,463.16149999620393,463.1496000220068,True,False
16,2,1330.4488635000307,star,"(-480.0, 270.0)",0,479.68250000849366,479.6706000342965,True,False
16,2,1330.4656422000262,star,"(-480.0, 270.0)",0,496.46120000397786,496.4493000297807,True,False
16,2,1330.4823160999804,star,"(-480.0, 270.0)",0,513.1350999581628,513.1231999839656,True,False
16,2,1330.4987327000126,star,"(-480.0, 270.0)",0,529.5516999904066,529.5398000162095,True,False
16,2,1330.5155158999842,star,"(-480.0, 270.0)",0,546.3348999619484,546.3229999877512,True,False
16,2,1330.5321248000255,star,"(-480.0, 270.0)",0,562.9438000032678,562.9319000290707,True,False
16,2,1330.548850000021,star,"(-480.0, 270.0)",0,579.6689999988303,579.6571000246331,True,False
16,2,1330.5653913000133,star,"(-480.0, 270.0)",0,596.2102999910712,596.1984000168741,True,False
16,2,1330.5821744999848,star,"(-480.0, 270.0)",0,612.993499962613,612.9815999884158,True,False
16,2,1330.5988715999993,star,"(-480.0, 270.0)",0,629.6905999770388,629.6787000028417,True,False
16,2,1330.6154947999748,star,"(-480.0, 270.0)",0,646.3137999526225,646.3018999784254,True,False
16,2,1330.6320828000316,star,"(-480.0, 270.0)",0,662.901800009422,662.8899000352249,True,False
16,2,1330.6487497999915,star,"(-480.0, 270.0)",0,679.5687999692746,679.5568999950774,True,False
16,2,1330.6655630000168,star,"(-480.0, 270.0)",0,696.3819999946281,696.370100020431,True,False
16,2,1330.6822294000303,star,"(-480.0, 270.0)",0,713.0484000081196,713.0365000339225,True,False
16,2,1330.6988071000087,star,"(-480.0, 270.0)",0,729.6260999864899,729.6142000122927,True,False
16,2,1330.7160722999834,star,"(-480.0, 270.0)",0,746.8912999611348,746.8793999869376,True,False
16,2,1330.737496900023,star,"(-480.0, 270.0)",0,768.3159000007436,768.3040000265464,True,False
16,2,1330.7488931000116,star,"(-480.0, 270.0)",0,779.7120999894105,779.7002000152133,True,False
16,2,1330.7655529999756,star,"(-480.0, 270.0)",0,796.3719999534078,796.3600999792106,True,False
16,2,1330.7820298000006,star,"(-480.0, 270.0)",0,812.8487999783829,812.8369000041857,True,False
16,2,1330.798880700022,star,"(-480.0, 270.0)",0,829.6996999997646,829.6878000255674,True,False
16,2,1330.8155598000158,star,"(-480.0, 270.0)",0,846.3787999935448,846.3669000193477,True,False
16,2,1330.8320656000287,star,"(-480.0, 270.0)",0,862.8846000065096,862.8727000323124,True,False
16,2,1330.8486834000214,star,"(-480.0, 270.0)",0,879.5023999991827,879.4905000249855,True,False
16,2,1330.8655661999946,star,"(-480.0, 270.0)",0,896.3851999724284,896.3732999982312,True,False
16,2,1330.882233500015,star,"(-480.0, 270.0)",0,913.0524999927729,913.0406000185758,True,False
16,2,1330.898893799982,star,"(-480.0, 270.0)",0,929.712799959816,929.7008999856189,True,False
16,2,1330.9155464000069,star,"(-480.0, 270.0)",0,946.3653999846429,946.3535000104457,True,False
16,2,1330.9322148999781,star,"(-480.0, 270.0)",0,963.0338999559171,963.02199998172,True,False
16,2,1330.948882800003,star,"(-480.0, 270.0)",0,979.7017999808304,979.6899000066333,True,False
16,2,1330.9656071999925,star,"(-480.0, 270.0)",0,996.4261999703012,996.4142999961041,True,False
16,2,1330.9822730000014,star,"(-480.0, 270.0)",0,1013.091999979224,1013.0801000050269,True,False
16,2,1330.9986884000245,star,"(-480.0, 270.0)",0,1029.5074000023305,1029.4955000281334,True,False
16,2,1331.015368100023,star,"(-480.0, 270.0)",0,1046.1871000006795,1046.1752000264823,True,False
16,2,1331.0319242000114,star,"(-480.0, 270.0)",0,1062.7431999891996,1062.7313000150025,True,False
16,2,1331.0486417000066,star,"(-480.0, 270.0)",0,1079.4606999843381,1079.448800010141,True,False
16,2,1331.0653276999947,star,"(-480.0, 270.0)",0,1096.1466999724507,1096.1347999982536,True,False
16,2,1331.0819812000263,star,"(-480.0, 270.0)",0,1112.8002000041306,1112.7883000299335,True,False
16,2,1331.098550900002,star,"(-480.0, 270.0)",0,1129.3698999797925,1129.3580000055954,True,False
16,2,1331.1154202999896,star,"(-480.0, 270.0)",0,1146.2392999674194,1146.2273999932222,True,False
16,2,1331.1321891000262,star,"(-480.0, 270.0)",0,1163.0081000039354,1162.9962000297382,True,False
16,2,1331.1485982000013,star,"(-480.0, 270.0)",0,1179.4171999790706,1179.4053000048734,True,False
16,2,1331.1655701000127,star,"(-480.0, 270.0)",0,1196.3890999904834,1196.3772000162862,True,False
16,2,1331.1824258000124,star,"(-480.0, 270.0)",0,1213.244799990207,1213.2329000160098,True,False
16,2,1331.1989772000234,star,"(-480.0, 270.0)",0,1229.7962000011466,1229.7843000269495,True,False
16,2,1331.2155410000123,star,"(-480.0, 270.0)",0,1246.3599999900907,1246.3481000158936,True,False
16,2,1331.2319595000008,star,"(-480.0, 270.0)",0,1262.7784999785945,1262.7666000043973,True,False
16,2,1331.2485279000248,star,"(-480.0, 270.0)",0,1279.3469000025652,1279.335000028368,True,False
16,2,1331.2653761000256,star,"(-480.0, 270.0)",0,1296.1951000033878,1296.1832000291906,True,False
16,2,1331.2820376000018,star,"(-480.0, 270.0)",0,1312.8565999795683,1312.8447000053711,True,False
16,2,1331.2988679999835,star,"(-480.0, 270.0)",0,1329.6869999612682,1329.675099987071,True,False
16,2,1331.31532709999,star,"(-480.0, 270.0)",0,1346.146099967882,1346.134199993685,True,False
16,2,1331.3322455000016,star,"(-480.0, 270.0)",0,1363.064499979373,1363.052600005176,True,False
16,2,1331.3486364000128,star,"(-480.0, 270.0)",0,1379.4553999905474,1379.4435000163503,True,False
16,2,1331.365311200032,star,"(-480.0, 270.0)",0,1396.130200009793,1396.118300035596,True,False
16,2,1331.3820317999925,star,"(-480.0, 270.0)",0,1412.8507999703288,1412.8388999961317,True,False
16,2,1331.3987777000293,star,"(-480.0, 270.0)",0,1429.596700007096,1429.5848000328988,True,False
16,2,1331.4153453999897,star,"(-480.0, 270.0)",0,1446.1643999675289,1446.1524999933317,True,False
16,2,1331.4319938999834,star,"(-480.0, 270.0)",0,1462.8128999611363,1462.8009999869391,True,False
16,2,1331.4489268999896,star,"(-480.0, 270.0)",0,1479.7458999673836,1479.7339999931864,True,False
16,2,1331.4652197000105,star,"(-480.0, 270.0)",0,1496.0386999882758,1496.0268000140786,True,False
16,2,1331.4817969999858,star,"(-480.0, 270.0)",0,1512.6159999636002,1512.604099989403,True,False
16,2,1331.4985175000038,star,"(-480.0, 270.0)",0,1529.3364999815822,1529.324600007385,True,False
16,2,1331.5152261999901,star,"(-480.0, 270.0)",0,1546.0451999679208,1546.0332999937236,True,False
16,2,1331.5319612000021,star,"(-480.0, 270.0)",0,1562.7801999798976,1562.7683000057004,True,False
16,2,1331.5485593000194,star,"(-480.0, 270.0)",0,1579.3782999971882,1579.366400022991,True,False
16,2,1331.5652483000304,star,"(-480.0, 270.0)",0,1596.0673000081442,1596.055400033947,True,False
16,2,1331.5821063999902,star,"(-480.0, 270.0)",0,1612.925399967935,1612.9134999937378,True,False
16,2,1331.5985858999775,star,"(-480.0, 270.0)",0,1629.4048999552615,1629.3929999810643,True,False
16,2,1331.6152077000006,star,"(-480.0, 270.0)",0,1646.0266999783926,1646.0148000041954,True,False
16,2,1331.6317241999786,star,"(-480.0, 270.0)",0,1662.543199956417,1662.53129998222,True,False
16,2,1331.6484528,star,"(-480.0, 270.0)",0,1679.2717999778688,1679.2599000036716,True,False
16,2,1331.6500624999753,circle,"(-480.0, -270.0)",266.3878999883309,1680.8814999531023,1680.8695999789052,True,False
16,2,1331.6672303000232,circle,"(-480.0, -270.0)",0,1698.0493000010028,1698.0374000268057,True,False
16,2,1331.6819131000084,circle,"(-480.0, -270.0)",0,1712.7320999861695,1712.7202000119723,True,False
16,2,1331.6985340000247,circle,"(-480.0, -270.0)",0,1729.3530000024475,1729.3411000282504,True,False
16,2,1331.7151643999969,circle,"(-480.0, -270.0)",0,1745.983399974648,1745.9715000004508,True,False
16,2,1331.7319779000245,circle,"(-480.0, -270.0)",0,1762.7969000022858,1762.7850000280887,True,False
16,2,1331.7484741000226,circle,"(-480.0, -270.0)",0,1779.2931000003591,1779.281200026162,True,False
16,2,1331.7651095999754,circle,"(-480.0, -270.0)",0,1795.9285999531858,1795.9166999789886,True,False
16,2,1332.814726600016,star,"(-480.0, 270.0)",266.7018999927677,2845.545599993784,2845.533700019587,False,True
16,3,1333.0810174000217,star,"(-480.0, 270.0)",263.9142000116408,3111.836399999447,266.2908000056632,True,False
16,3,1333.1004386999994,star,"(-480.0, 270.0)",0,3131.257699977141,285.7120999833569,True,False
16,3,1333.1148508000188,star,"(-480.0, 270.0)",0,3145.66979999654,300.12420000275597,True,False
16,3,1333.1314681000076,star,"(-480.0, 270.0)",0,3162.287099985406,316.7414999916218,True,False
16,3,1333.1478694999823,star,"(-480.0, 270.0)",0,3178.688499960117,333.14289996633306,True,False
16,3,1333.1647849000292,star,"(-480.0, 270.0)",0,3195.6039000069723,350.0583000131883,True,False
16,3,1333.1813583999756,star,"(-480.0, 270.0)",0,3212.1773999533616,366.6317999595776,True,False
16,3,1333.198572400026,star,"(-480.0, 270.0)",0,3229.3914000038058,383.8458000100218,True,False
16,3,1333.214683099999,star,"(-480.0, 270.0)",0,3245.502099976875,399.9564999830909,True,False
16,3,1333.2314000999904,star,"(-480.0, 270.0)",0,3262.219099968206,416.67349997442216,True,False
16,3,1333.2480063000112,star,"(-480.0, 270.0)",0,3278.8252999889664,433.27969999518245,True,False
16,3,1333.2646910999902,star,"(-480.0, 270.0)",0,3295.5100999679416,449.96449997415766,True,False
16,3,1333.281438099977,star,"(-480.0, 270.0)",0,3312.257099954877,466.71149996109307,True,False
16,3,1333.2980906000012,star,"(-480.0, 270.0)",0,3328.9095999789424,483.36399998515844,True,False
16,3,1333.3150728999753,star,"(-480.0, 270.0)",0,3345.8918999531306,500.34629995934665,True,False
16,3,1333.3315734000062,star,"(-480.0, 270.0)",0,3362.3923999839462,516.8467999901623,True,False
16,3,1333.348531500029,star,"(-480.0, 270.0)",0,3379.3505000066943,533.8049000129104,True,False
16,3,1333.3649369999766,star,"(-480.0, 270.0)",0,3395.7559999544173,550.2103999606334,True,False
16,3,1333.3818337999983,star,"(-480.0, 270.0)",0,3412.6527999760583,567.1071999822743,True,False
16,3,1333.3984091000166,star,"(-480.0, 270.0)",0,3429.2280999943614,583.6825000005774,True,False
16,3,1333.4149491999997,star,"(-480.0, 270.0)",0,3445.768199977465,600.222599983681,True,False
16,3,1333.4316329000285,star,"(-480.0, 270.0)",0,3462.451900006272,616.9063000124879,True,False
16,3,1333.44810530002,star,"(-480.0, 270.0)",0,3478.924299997743,633.3787000039592,True,False
16,3,1333.464796299988,star,"(-480.0, 270.0)",0,3495.6152999657206,650.0696999719366,True,False
16,3,1333.4812938999967,star,"(-480.0, 270.0)",0,3512.112899974454,666.5672999806702,True,False
16,3,1333.4979726999882,star,"(-480.0, 270.0)",0,3528.79169996595,683.2460999721661,True,False
16,3,1333.5146556000109,star,"(-480.0, 270.0)",0,3545.4745999886654,699.9289999948815,True,False
16,3,1333.5316436000285,star,"(-480.0, 270.0)",0,3562.4626000062563,716.9170000124723,True,False
16,3,1333.5481412999798,star,"(-480.0, 270.0)",0,3578.9602999575436,733.4146999637596,True,False
16,3,1333.5647033000132,star,"(-480.0, 270.0)",0,3595.5222999909893,749.9766999972053,True,False
16,3,1333.5813380000181,star,"(-480.0, 270.0)",0,3612.156999995932,766.611400002148,True,False
16,3,1333.598092500004,star,"(-480.0, 270.0)",0,3628.9114999817684,783.3658999879844,True,False
16,3,1333.6147136000218,star,"(-480.0, 270.0)",0,3645.5325999995694,799.9870000057854,True,False
16,3,1333.6313477000222,star,"(-480.0, 270.0)",0,3662.1666999999434,816.6211000061594,True,False
16,3,1333.6476816000068,star,"(-480.0, 270.0)",0,3678.5005999845453,832.9549999907613,True,False
16,3,1333.6646166000282,star,"(-480.0, 270.0)",0,3695.4356000060216,849.8900000122376,True,False
16,3,1333.6812672999804,star,"(-480.0, 270.0)",0,3712.086299958173,866.5406999643892,True,False
16,3,1333.697959000012,star,"(-480.0, 270.0)",0,3728.7779999896884,883.2323999959044,True,False
16,3,1333.7143960000249,star,"(-480.0, 270.0)",0,3745.215000002645,899.669400008861,True,False
16,3,1333.731264300004,star,"(-480.0, 270.0)",0,3762.083299981896,916.5376999881119,True,False
16,3,1333.7479838000145,star,"(-480.0, 270.0)",0,3778.8027999922633,933.2571999984793,True,False
16,3,1333.7645512000308,star,"(-480.0, 270.0)",0,3795.3702000086196,949.8246000148356,True,False
16,3,1333.7813031999976,star,"(-480.0, 270.0)",0,3812.12219997542,966.5765999816358,True,False
16,3,1333.797853600001,star,"(-480.0, 270.0)",0,3828.672599978745,983.126999984961,True,False
16,3,1333.8146317999926,star,"(-480.0, 270.0)",0,3845.450799970422,999.905199976638,True,False
16,3,1333.8319995999918,star,"(-480.0, 270.0)",0,3862.8185999696143,1017.2729999758303,True,False
16,3,1333.8480121999746,star,"(-480.0, 270.0)",0,3878.831199952401,1033.2855999586172,True,False
16,3,1333.864696100005,star,"(-480.0, 270.0)",0,3895.515099982731,1049.969499988947,True,False
16,3,1333.881015299994,star,"(-480.0, 270.0)",0,3911.834299971815,1066.2886999780312,True,False
16,3,1333.8980498000165,star,"(-480.0, 270.0)",0,3928.868799994234,1083.32320000045,True,False
16,3,1333.9145870999782,star,"(-480.0, 270.0)",0,3945.406099956017,1099.860499962233,True,False
16,3,1333.931210300012,star,"(-480.0, 270.0)",0,3962.0292999898084,1116.4836999960244,True,False
16,3,1333.9479137000162,star,"(-480.0, 270.0)",0,3978.732699993998,1133.1871000002138,True,False
16,3,1333.9645162000088,star,"(-480.0, 270.0)",0,3995.3351999865845,1149.7895999928005,True,False
16,3,1333.981040499988,star,"(-480.0, 270.0)",0,4011.8594999657944,1166.3138999720104,True,False
16,3,1333.9976087000105,star,"(-480.0, 270.0)",0,4028.4276999882422,1182.8820999944583,True,False
16,3,1334.0147903999896,star,"(-480.0, 270.0)",0,4045.6093999673612,1200.0637999735773,True,False
16,3,1334.0312816000078,star,"(-480.0, 270.0)",0,4062.1005999855697,1216.5549999917857,True,False
16,3,1334.033110600023,t,"(480.0, 270.0)",250.21369999740273,4063.929600000847,1218.3840000070632,True,False
16,3,1334.0499020999996,t,"(480.0, 270.0)",0,4080.7210999773815,1235.1754999835975,True,False
16,3,1334.0645388999837,t,"(480.0, 270.0)",0,4095.3578999615274,1249.8122999677435,True,False
16,3,1334.0811999000143,t,"(480.0, 270.0)",0,4112.018899992108,1266.4732999983244,True,False
16,3,1334.0979639000143,t,"(480.0, 270.0)",0,4128.782899992075,1283.2372999982908,True,False
16,3,1334.1143881999888,t,"(480.0, 270.0)",0,4145.207199966535,1299.661599972751,True,False
16,3,1334.1311073999968,t,"(480.0, 270.0)",0,4161.926399974618,1316.3807999808341,True,False
16,3,1334.1477653000038,t,"(480.0, 270.0)",0,4178.584299981594,1333.03869998781,True,False
16,3,1334.1645220000064,t,"(480.0, 270.0)",0,4195.340999984182,1349.7953999903984,True,False
16,3,1334.1811035000137,t,"(480.0, 270.0)",0,4211.922499991488,1366.3768999977037,True,False
16,3,1334.1975797999767,t,"(480.0, 270.0)",0,4228.398799954448,1382.853199960664,True,False
16,3,1334.2143494000193,t,"(480.0, 270.0)",0,4245.1683999970555,1399.6228000032715,True,False
16,3,1334.2310768000316,t,"(480.0, 270.0)",0,4261.89580000937,1416.3502000155859,True,False
16,3,1334.2477176000248,t,"(480.0, 270.0)",0,4278.536600002553,1432.9910000087693,True,False
16,3,1334.2647472000099,t,"(480.0, 270.0)",0,4295.566199987661,1450.020599993877,True,False
16,3,1334.2811342999921,t,"(480.0, 270.0)",0,4311.9532999699,1466.4076999761164,True,False
16,3,1334.2977652000263,t,"(480.0, 270.0)",0,4328.584200004116,1483.0386000103317,True,False
16,3,1334.3147284000297,t,"(480.0, 270.0)",0,4345.54740000749,1500.001800013706,True,False
16,3,1334.3312361999997,t,"(480.0, 270.0)",0,4362.055199977476,1516.5095999836922,True,False
16,3,1334.3477735000197,t,"(480.0, 270.0)",0,4378.592499997467,1533.0469000036828,True,False
16,3,1334.3643994000158,t,"(480.0, 270.0)",0,4395.21839999361,1549.6727999998257,True,False
16,3,1334.3810724000214,t,"(480.0, 270.0)",0,4411.891399999149,1566.3458000053652,True,False
16,3,1334.3977114000008,t,"(480.0, 270.0)",0,4428.5303999786265,1582.9847999848425,True,False
16,3,1334.4144804999814,t,"(480.0, 270.0)",0,4445.299499959219,1599.7538999654353,True,False
16,3,1334.4309530000319,t,"(480.0, 270.0)",0,4461.77200000966,1616.2264000158757,True,False
16,3,1334.4475778000196,t,"(480.0, 270.0)",0,4478.396799997427,1632.8512000036426,True,False
16,3,1334.4645714000217,t,"(480.0, 270.0)",0,4495.390399999451,1649.844800005667,True,False
16,3,1334.4811970000155,t,"(480.0, 270.0)",0,4512.015999993309,1666.4703999995254,True,False
16,3,1334.4979526000097,t,"(480.0, 270.0)",0,4528.771599987522,1683.2259999937378,True,False
16,3,1334.51462859998,t,"(480.0, 270.0)",0,4545.447599957697,1699.901999963913,True,False
16,3,1334.5315788000007,t,"(480.0, 270.0)",0,4562.397799978498,1716.8521999847144,True,False
16,3,1334.548072399979,t,"(480.0, 270.0)",0,4578.891399956774,1733.34579996299,True,False
16,3,1334.5642465000274,t,"(480.0, 270.0)",0,4595.065500005148,1749.5199000113644,True,False
16,3,1334.58085139998,t,"(480.0, 270.0)",0,4611.670399957802,1766.1247999640182,True,False
16,3,1334.5977445000317,t,"(480.0, 270.0)",0,4628.563500009477,1783.0179000156932,True,False
16,3,1334.614377400023,t,"(480.0, 270.0)",0,4645.196400000714,1799.6508000069298,True,False
16,3,1334.6162464999943,t,"(480.0, 270.0)",564.7024000063539,4647.065499972086,1801.5198999783024,False,True
16,4,1337.3297259000246,cross,"(480.0, -270.0)",266.56489999732,7360.544900002424,2713.4794000303373,False,True
17,1,1341.4311976000317,circle,"(-480.0, -270.0)",0,0.01390004763379693,0.01390004763379693,False,True
17,2,1346.1767258999753,t,"(480.0, 270.0)",266.3623999687843,4745.542199991178,4745.528299943544,False,True
17,3,1346.5269706000108,star,"(-480.0, 270.0)",266.56309998361394,5095.786900026724,350.244700035546,True,False
17,3,1346.5455775000155,star,"(-480.0, 270.0)",0,5114.393800031394,368.851600040216,True,False
17,3,1346.5603527000058,star,"(-480.0, 270.0)",0,5129.169000021648,383.6268000304699,True,False
17,3,1346.5770195000223,star,"(-480.0, 270.0)",0,5145.835800038185,400.2936000470072,True,False
17,3,1346.5935994000174,star,"(-480.0, 270.0)",0,5162.415700033307,416.8735000421293,True,False
17,3,1346.6101487000124,star,"(-480.0, 270.0)",0,5178.965000028256,433.42280003707856,True,False
17,3,1346.627089000016,star,"(-480.0, 270.0)",0,5195.905300031882,450.363100040704,True,False
17,3,1346.6439246999798,star,"(-480.0, 270.0)",0,5212.740999995731,467.19880000455305,True,False
17,3,1346.6602851999924,star,"(-480.0, 270.0)",0,5229.101500008255,483.5593000170775,True,False
17,3,1346.6769145000144,star,"(-480.0, 270.0)",0,5245.730800030287,500.1886000391096,True,False
17,3,1346.6935719000176,star,"(-480.0, 270.0)",0,5262.388200033456,516.8460000422783,True,False
17,3,1346.7101208000095,star,"(-480.0, 270.0)",0,5278.9371000253595,533.3949000341818,True,False
17,3,1346.7268037999747,star,"(-480.0, 270.0)",0,5295.620099990629,550.0778999994509,True,False
17,3,1346.743433399999,star,"(-480.0, 270.0)",0,5312.249700014945,566.7075000237674,True,False
17,3,1346.7600870000315,star,"(-480.0, 270.0)",0,5328.903300047386,583.3611000562087,True,False
17,3,1346.7768516999786,star,"(-480.0, 270.0)",0,5345.667999994475,600.1258000032976,True,False
17,3,1346.7934467000305,star,"(-480.0, 270.0)",0,5362.263000046369,616.7208000551909,True,False
17,3,1346.8100964999758,star,"(-480.0, 270.0)",0,5378.912799991667,633.3706000004895,True,False
17,3,1346.8268477999954,star,"(-480.0, 270.0)",0,5395.664100011345,650.1219000201672,True,False
17,3,1346.8435481999768,star,"(-480.0, 270.0)",0,5412.364499992691,666.8223000015132,True,False
17,3,1346.8602576000267,star,"(-480.0, 270.0)",0,5429.073900042567,683.5317000513896,True,False
17,3,1346.8770042000106,star,"(-480.0, 270.0)",0,5445.820500026457,700.2783000352792,True,False
17,3,1346.8935802999767,star,"(-480.0, 270.0)",0,5462.396599992644,716.8544000014663,True,False
17,3,1346.910262999998,star,"(-480.0, 270.0)",0,5479.0793000138365,733.5371000226587,True,False
17,3,1346.92696349998,star,"(-480.0, 270.0)",0,5495.779799995944,750.2376000047661,True,False
17,3,1346.9435649000225,star,"(-480.0, 270.0)",0,5512.381200038362,766.8390000471845,True,False
17,3,1346.9602931999834,star,"(-480.0, 270.0)",0,5529.109499999322,783.5673000081442,True,False
17,3,1346.9769560000277,star,"(-480.0, 270.0)",0,5545.772300043609,800.2301000524312,True,False
17,3,1346.9936586000258,star,"(-480.0, 270.0)",0,5562.474900041707,816.9327000505291,True,False
17,3,1347.0101815999951,star,"(-480.0, 270.0)",0,5578.997900011018,833.4557000198402,True,False
17,3,1347.0268852000008,star,"(-480.0, 270.0)",0,5595.70150001673,850.1593000255525,True,False
17,3,1347.043472499994,star,"(-480.0, 270.0)",0,5612.288800009992,866.7466000188142,True,False
17,3,1347.0601989999996,star,"(-480.0, 270.0)",0,5629.015300015453,883.4731000242755,True,False
17,3,1347.076858000015,star,"(-480.0, 270.0)",0,5645.674300030805,900.1321000396274,True,False
17,3,1347.0934775000205,star,"(-480.0, 270.0)",0,5662.293800036423,916.7516000452451,True,False
17,3,1347.1101885000244,star,"(-480.0, 270.0)",0,5679.004800040275,933.4626000490971,True,False
17,3,1347.1269288000185,star,"(-480.0, 270.0)",0,5695.745100034401,950.202900043223,True,False
17,3,1347.143460399995,star,"(-480.0, 270.0)",0,5712.276700010989,966.7345000198111,True,False
17,3,1347.1604004999972,star,"(-480.0, 270.0)",0,5729.216800013091,983.6746000219136,True,False
17,3,1347.1768194999895,star,"(-480.0, 270.0)",0,5745.635800005402,1000.0936000142246,True,False
17,3,1347.1934493000153,star,"(-480.0, 270.0)",0,5762.265600031242,1016.723400040064,True,False
17,3,1347.2100708999787,star,"(-480.0, 270.0)",0,5778.887199994642,1033.3450000034645,True,False
17,3,1347.2267774000065,star,"(-480.0, 270.0)",0,5795.593700022437,1050.051500031259,True,False
17,3,1347.2434256999986,star,"(-480.0, 270.0)",0,5812.242000014521,1066.6998000233434,True,False
17,3,1347.2600993000087,star,"(-480.0, 270.0)",0,5828.915600024629,1083.3734000334516,True,False
17,3,1347.2768450999865,star,"(-480.0, 270.0)",0,5845.661400002427,1100.1192000112496,True,False
17,3,1347.2935260999948,star,"(-480.0, 270.0)",0,5862.342400010675,1116.8002000194974,True,False
17,3,1347.3101340000285,star,"(-480.0, 270.0)",0,5878.95030004438,1133.4081000532024,True,False
17,3,1347.326744400023,star,"(-480.0, 270.0)",0,5895.560700038914,1150.0185000477359,True,False
17,3,1347.3436254999833,star,"(-480.0, 270.0)",0,5912.441799999215,1166.899600008037,True,False
17,3,1347.3604743999895,star,"(-480.0, 270.0)",0,5929.290700005367,1183.7485000141896,True,False
17,3,1347.3770683999755,star,"(-480.0, 270.0)",0,5945.8846999914385,1200.3425000002608,True,False
17,3,1347.393474899989,star,"(-480.0, 270.0)",0,5962.291200004984,1216.749000013806,True,False
17,3,1347.4101600000286,star,"(-480.0, 270.0)",0,5978.976300044451,1233.4341000532731,True,False
17,3,1347.4269060000079,star,"(-480.0, 270.0)",0,5995.722300023772,1250.180100032594,True,False
17,3,1347.4433204000234,star,"(-480.0, 270.0)",0,6012.136700039264,1266.594500048086,True,False
17,3,1347.459918299981,star,"(-480.0, 270.0)",0,6028.734599996824,1283.192400005646,True,False
17,3,1347.4766929000034,star,"(-480.0, 270.0)",0,6045.509200019296,1299.9670000281185,True,False
17,3,1347.4932833000203,star,"(-480.0, 270.0)",0,6062.099600036163,1316.5574000449851,True,False
17,3,1347.5100138999987,star,"(-480.0, 270.0)",0,6078.830200014636,1333.2880000234582,True,False
17,3,1347.5267433000263,star,"(-480.0, 270.0)",0,6095.559600042179,1350.0174000510015,True,False
17,3,1347.543351900007,star,"(-480.0, 270.0)",0,6112.168200023007,1366.6260000318289,True,False
17,3,1347.560127899982,star,"(-480.0, 270.0)",0,6128.944199997932,1383.402000006754,True,False
17,3,1347.5769816000247,star,"(-480.0, 270.0)",0,6145.797900040634,1400.2557000494562,True,False
17,3,1347.5936819000053,star,"(-480.0, 270.0)",0,6162.4982000212185,1416.9560000300407,True,False
17,3,1347.6103221999947,star,"(-480.0, 270.0)",0,6179.138500010595,1433.596300019417,True,False
17,3,1347.626785999979,star,"(-480.0, 270.0)",0,6195.602299994789,1450.0601000036113,True,False
17,3,1347.6433967999765,star,"(-480.0, 270.0)",0,6212.213099992368,1466.6709000011906,True,False
17,3,1347.6600055000163,star,"(-480.0, 270.0)",0,6228.821800032165,1483.2796000409871,True,False
17,3,1347.6768466000212,star,"(-480.0, 270.0)",0,6245.662900037132,1500.1207000459544,True,False
17,3,1347.6934152999893,star,"(-480.0, 270.0)",0,6262.23160000518,1516.6894000140019,True,False
17,3,1347.7101368000149,star,"(-480.0, 270.0)",0,6278.953100030776,1533.4109000395983,True,False
17,3,1347.7268935000175,star,"(-480.0, 270.0)",0,6295.709800033364,1550.1676000421867,True,False
17,3,1347.7433020999888,star,"(-480.0, 270.0)",0,6312.118400004692,1566.5762000135146,True,False
17,3,1347.7599123999826,star,"(-480.0, 270.0)",0,6328.728699998464,1583.1865000072867,True,False
17,3,1347.7767224999843,star,"(-480.0, 270.0)",0,6345.538800000213,1599.9966000090353,True,False
17,3,1347.7933597000083,star,"(-480.0, 270.0)",0,6362.176000024192,1616.6338000330143,True,False
17,3,1347.810111000028,star,"(-480.0, 270.0)",0,6378.92730004387,1633.385100052692,True,False
17,3,1347.8266466999776,star,"(-480.0, 270.0)",0,6395.46299999347,1649.9208000022918,True,False
17,3,1347.843265399977,star,"(-480.0, 270.0)",0,6412.081699992996,1666.539500001818,True,False
17,3,1347.8599309999845,star,"(-480.0, 270.0)",0,6428.747300000396,1683.2051000092179,True,False
17,3,1347.8765016000252,star,"(-480.0, 270.0)",0,6445.317900041118,1699.7757000499405,True,False
17,3,1347.8931730000186,star,"(-480.0, 270.0)",0,6461.989300034475,1716.4471000432968,True,False
17,3,1347.9098526000162,star,"(-480.0, 270.0)",0,6478.668900032062,1733.1267000408843,True,False
17,3,1347.9267946999753,star,"(-480.0, 270.0)",0,6495.610999991186,1750.0688000000082,True,False
17,3,1347.943183800031,star,"(-480.0, 270.0)",0,6512.000100046862,1766.4579000556841,True,False
17,3,1347.9599474000279,star,"(-480.0, 270.0)",0,6528.763700043783,1783.2215000526048,True,False
17,3,1347.9767332000192,star,"(-480.0, 270.0)",0,6545.549500035122,1800.0073000439443,True,False
17,3,1348.1928902000072,cross,"(480.0, -270.0)",264.15390003239736,6761.706500023138,2016.16430003196,False,True
18,1,1357.4944787999848,circle,"(-480.0, -270.0)",0,0.012299977242946625,0.012299977242946625,False,True
19,1,1371.5205687999842,circle,"(-480.0, -270.0)",0,0.011599971912801266,0.011599971912801266,False,True
20,1,1378.8185841999948,circle,"(-480.0, -270.0)",0,0.01179997343569994,0.01179997343569994,False,True
20,2,1379.5828626999864,circle,"(-480.0, -270.0)",250.1242999569513,764.2902999650687,764.278499991633,True,False
20,2,1379.6014902000315,circle,"(-480.0, -270.0)",0,782.917800010182,782.9060000367463,True,False
20,2,1379.6161585000227,circle,"(-480.0, -270.0)",0,797.5861000013538,797.5743000279181,True,False
20,2,1379.632870200032,circle,"(-480.0, -270.0)",0,814.2978000105359,814.2860000371002,True,False
20,2,1379.6494003999978,circle,"(-480.0, -270.0)",0,830.8279999764636,830.8162000030279,True,False
20,2,1379.6660412999918,circle,"(-480.0, -270.0)",0,847.4688999704085,847.4570999969728,True,False
20,2,1379.6826325000147,circle,"(-480.0, -270.0)",0,864.0600999933667,864.048300019931,True,False
20,2,1379.699352000025,circle,"(-480.0, -270.0)",0,880.7796000037342,880.7678000302985,True,False
20,2,1379.716169900028,circle,"(-480.0, -270.0)",0,897.5975000066683,897.5857000332326,True,False
20,2,1379.7327444999828,circle,"(-480.0, -270.0)",0,914.1720999614336,914.1602999879979,True,False
20,2,1379.749365399999,circle,"(-480.0, -270.0)",0,930.7929999777116,930.7812000042759,True,False
20,2,1379.7660060999915,circle,"(-480.0, -270.0)",0,947.4336999701336,947.4218999966979,True,False
20,2,1379.782709799998,circle,"(-480.0, -270.0)",0,964.1373999766074,964.1256000031717,True,False
20,2,1379.7993376000086,circle,"(-480.0, -270.0)",0,980.7651999872178,980.7534000137821,True,False
20,2,1379.8160460999934,circle,"(-480.0, -270.0)",0,997.4736999720335,997.4618999985978,True,False
20,2,1379.8327422000002,circle,"(-480.0, -270.0)",0,1014.1697999788448,1014.1580000054091,True,False
20,2,1379.849363300018,circle,"(-480.0, -270.0)",0,1030.7908999966457,1030.77910002321,True,False
20,2,1379.866154599993,circle,"(-480.0, -270.0)",0,1047.5821999716572,1047.5703999982215,True,False
20,2,1379.8827120999922,circle,"(-480.0, -270.0)",0,1064.1396999708377,1064.127899997402,True,False
20,2,1379.8992961000185,circle,"(-480.0, -270.0)",0,1080.7236999971792,1080.7119000237435,True,False
20,2,1379.9160000000265,circle,"(-480.0, -270.0)",0,1097.427600005176,1097.4158000317402,True,False
20,2,1379.9327023000224,circle,"(-480.0, -270.0)",0,1114.1299000009894,1114.1181000275537,True,False
20,2,1379.9493190000067,circle,"(-480.0, -270.0)",0,1130.7465999852866,1130.734800011851,True,False
20,2,1379.9659673999995,circle,"(-480.0, -270.0)",0,1147.3949999781325,1147.3832000046968,True,False
20,2,1379.982983199996,circle,"(-480.0, -270.0)",0,1164.4107999745756,1164.39900000114,True,False
20,2,1379.9993412999902,circle,"(-480.0, -270.0)",0,1180.7688999688253,1180.7570999953896,True,False
20,2,1380.016149699979,circle,"(-480.0, -270.0)",0,1197.5772999576293,1197.5654999841936,True,False
20,2,1380.0326657000114,circle,"(-480.0, -270.0)",0,1214.0932999900542,1214.0815000166185,True,False
20,2,1380.0493367000017,circle,"(-480.0, -270.0)",0,1230.7642999803647,1230.752500006929,True,False
20,2,1380.0661533999955,circle,"(-480.0, -270.0)",0,1247.5809999741614,1247.5692000007257,True,False
20,2,1380.0827464000322,circle,"(-480.0, -270.0)",0,1264.1740000108257,1264.16220003739,True,False
20,2,1380.1039255000069,circle,"(-480.0, -270.0)",0,1285.3530999855138,1285.3413000120781,True,False
20,2,1380.1161433000234,circle,"(-480.0, -270.0)",0,1297.5709000020288,1297.559100028593,True,False
20,2,1380.1328539000242,circle,"(-480.0, -270.0)",0,1314.281500002835,1314.2697000293992,True,False
20,2,1380.1492967000231,circle,"(-480.0, -270.0)",0,1330.724300001748,1330.7125000283122,True,False
20,2,1380.1660819000099,circle,"(-480.0, -270.0)",0,1347.5094999885187,1347.497700015083,True,False
20,2,1380.1827495000325,circle,"(-480.0, -270.0)",0,1364.1771000111476,1364.1653000377119,True,False
20,2,1380.1992643999984,circle,"(-480.0, -270.0)",0,1380.6919999769889,1380.6802000035532,True,False
20,2,1380.2160038999864,circle,"(-480.0, -270.0)",0,1397.4314999650232,1397.4196999915875,True,False
20,2,1380.2326032000128,circle,"(-480.0, -270.0)",0,1414.0307999914512,1414.0190000180155,True,False
20,2,1380.2493800999946,circle,"(-480.0, -270.0)",0,1430.8076999732293,1430.7958999997936,True,False
20,2,1380.2660616000067,circle,"(-480.0, -270.0)",0,1447.4891999852844,1447.4774000118487,True,False
20,2,1380.2826677000266,circle,"(-480.0, -270.0)",0,1464.0953000052832,1464.0835000318475,True,False
20,2,1380.2993679000065,circle,"(-480.0, -270.0)",0,1480.7954999851063,1480.7837000116706,True,False
20,2,1380.315994100005,circle,"(-480.0, -270.0)",0,1497.4216999835335,1497.4099000100978,True,False
20,2,1380.3326990000205,circle,"(-480.0, -270.0)",0,1514.1265999991447,1514.114800025709,True,False
20,2,1380.3493001000024,circle,"(-480.0, -270.0)",0,1530.727699981071,1530.7159000076354,True,False
20,2,1380.366039399989,circle,"(-480.0, -270.0)",0,1547.4669999675825,1547.4551999941468,True,False
20,2,1380.38243160001,circle,"(-480.0, -270.0)",0,1563.8591999886557,1563.84740001522,True,False
20,2,1380.3991837999783,circle,"(-480.0, -270.0)",0,1580.6113999569789,1580.5995999835432,True,False
20,2,1380.4158823000034,circle,"(-480.0, -270.0)",0,1597.309899982065,1597.2981000086293,True,False
20,2,1380.4325237000012,circle,"(-480.0, -270.0)",0,1613.9512999798171,1613.9395000063814,True,False
20,2,1380.4491864999873,circle,"(-480.0, -270.0)",0,1630.6140999658965,1630.6022999924608,True,False
20,2,1380.4660230000154,circle,"(-480.0, -270.0)",0,1647.4505999940448,1647.438800020609,True,False
20,2,1380.4824402999948,circle,"(-480.0, -270.0)",0,1663.867899973411,1663.8560999999754,True,False
20,2,1380.499204599997,circle,"(-480.0, -270.0)",0,1680.632199975662,1680.6204000022262,True,False
20,2,1380.515849700023,circle,"(-480.0, -270.0)",0,1697.2773000015877,1697.265500028152,True,False
20,2,1380.532458200003,circle,"(-480.0, -270.0)",0,1713.8857999816537,1713.874000008218,True,False
20,2,1380.5491260000272,circle,"(-480.0, -270.0)",0,1730.5536000058055,1730.5418000323698,True,False
20,2,1380.5659067999804,circle,"(-480.0, -270.0)",0,1747.3343999590725,1747.3225999856368,True,False
20,2,1380.5826785999816,circle,"(-480.0, -270.0)",0,1764.1061999602243,1764.0943999867886,True,False
20,2,1380.5993129999842,circle,"(-480.0, -270.0)",0,1780.7405999628827,1780.728799989447,True,False
21,1,1392.7973569000023,circle,"(-480.0, -270.0)",0,0.012599979527294636,0.012599979527294636,False,True
21,2,1393.061741499987,cross,"(480.0, -270.0)",262.60369998635724,264.3971999641508,264.3845999846235,True,False
21,2,1393.0802765000262,cross,"(480.0, -270.0)",0,282.93220000341535,282.91960002388805,True,False
21,2,1393.0950842000311,cross,"(480.0, -270.0)",0,297.73990000830963,297.72730002878234,True,False
21,2,1393.1114038000233,cross,"(480.0, -270.0)",0,314.0595000004396,314.0469000209123,True,False
21,2,1393.1281320999842,cross,"(480.0, -270.0)",0,330.7877999613993,330.775199981872,True,False
21,2,1393.1450560999801,cross,"(480.0, -270.0)",0,347.7117999573238,347.6991999777965,True,False
21,2,1393.1616755999858,cross,"(480.0, -270.0)",0,364.33129996294156,364.31869998341426,True,False
21,2,1393.1785901000258,cross,"(480.0, -270.0)",0,381.2458000029437,381.23320002341643,True,False
21,2,1393.1950740999891,cross,"(480.0, -270.0)",0,397.72979996632785,397.71719998680055,True,False
21,2,1393.2118173000054,cross,"(480.0, -270.0)",0,414.47299998253584,414.46040000300854,True,False
21,2,1393.2284120999975,cross,"(480.0, -270.0)",0,431.0677999746986,431.0551999951713,True,False
21,2,1393.2449577000225,cross,"(480.0, -270.0)",0,447.61339999968186,447.60080002015457,True,False
21,2,1393.2617380000302,cross,"(480.0, -270.0)",0,464.39370000734925,464.38110002782196,True,False
21,2,1393.2783257000265,cross,"(480.0, -270.0)",0,480.98140000365674,480.96880002412945,True,False
21,2,1393.2948463999783,cross,"(480.0, -270.0)",0,497.50209995545447,497.4894999759272,True,False
21,2,1393.3117106999853,cross,"(480.0, -270.0)",0,514.366399962455,514.3537999829277,True,False
21,2,1393.328481399978,cross,"(480.0, -270.0)",0,531.137099955231,531.1244999757037,True,False
21,2,1393.3448026999831,cross,"(480.0, -270.0)",0,547.4583999603055,547.4457999807782,True,False
21,2,1393.3615499000298,cross,"(480.0, -270.0)",0,564.2056000069715,564.1930000274442,True,False
21,2,1393.3779577999958,cross,"(480.0, -270.0)",0,580.6134999729693,580.600899993442,True,False
21,2,1393.3946689000004,cross,"(480.0, -270.0)",0,597.3245999775827,597.3119999980554,True,False
21,2,1393.411727699975,cross,"(480.0, -270.0)",0,614.383399952203,614.3707999726757,True,False
21,2,1393.4283850999782,cross,"(480.0, -270.0)",0,631.0407999553718,631.0281999758445,True,False
21,2,1393.445407900028,cross,"(480.0, -270.0)",0,648.0636000051163,648.051000025589,True,False
21,2,1393.4469552999944,circle,"(-480.0, -270.0)",250.23319997126237,649.6109999716282,649.5983999921009,True,False
21,2,1393.463747599977,circle,"(-480.0, -270.0)",0,666.4032999542542,666.3906999747269,True,False
21,2,1393.4786823000177,circle,"(-480.0, -270.0)",0,681.3379999948665,681.3254000153393,True,False
21,2,1393.4951628000126,circle,"(-480.0, -270.0)",0,697.8184999898076,697.8059000102803,True,False
21,2,1393.5117585000116,circle,"(-480.0, -270.0)",0,714.4141999888234,714.4016000092961,True,False
21,2,1393.5284184999764,circle,"(-480.0, -270.0)",0,731.0741999535821,731.0615999740548,True,False
21,2,1393.5452418000204,circle,"(-480.0, -270.0)",0,747.8974999976344,747.8849000181071,True,False
21,2,1393.5617217000108,circle,"(-480.0, -270.0)",0,764.3773999880068,764.3648000084795,True,False
21,2,1393.5785521999933,circle,"(-480.0, -270.0)",0,781.2078999704681,781.1952999909408,True,False
21,2,1393.5950643999968,circle,"(-480.0, -270.0)",0,797.720099973958,797.7074999944307,True,False
21,2,1393.611615700007,circle,"(-480.0, -270.0)",0,814.2713999841362,814.2588000046089,True,False
21,2,1393.6281987000257,circle,"(-480.0, -270.0)",0,830.8544000028633,830.841800023336,True,False
21,2,1393.6447812999832,circle,"(-480.0, -270.0)",0,847.4369999603368,847.4243999808095,True,False
21,2,1393.6615599999786,circle,"(-480.0, -270.0)",0,864.215699955821,864.2030999762937,True,False
21,2,1393.6781762000173,circle,"(-480.0, -270.0)",0,880.8318999945186,880.8193000149913,True,False
21,2,1393.6947440999793,circle,"(-480.0, -270.0)",0,897.3997999564745,897.3871999769472,True,False
21,2,1393.7115387999802,circle,"(-480.0, -270.0)",0,914.1944999573752,914.1818999778479,True,False
21,2,1393.728052099992,circle,"(-480.0, -270.0)",0,930.707799969241,930.6951999897137,True,False
21,2,1393.7446790999966,circle,"(-480.0, -270.0)",0,947.3347999737598,947.3221999942325,True,False
21,2,1393.7618834000314,circle,"(-480.0, -270.0)",0,964.539100008551,964.5265000290237,True,False
21,2,1393.7780488000135,circle,"(-480.0, -270.0)",0,980.7044999906793,980.691900011152,True,False
21,2,1393.794832399988,circle,"(-480.0, -270.0)",0,997.4880999652669,997.4754999857396,True,False
21,2,1393.811698400008,circle,"(-480.0, -270.0)",0,1014.3540999852121,1014.3415000056848,True,False
21,2,1393.8280071999761,circle,"(-480.0, -270.0)",0,1030.6628999533132,1030.6502999737859,True,False
21,2,1393.8447791999788,circle,"(-480.0, -270.0)",0,1047.434899955988,1047.4222999764606,True,False
21,2,1393.8613553000032,circle,"(-480.0, -270.0)",0,1064.0109999803826,1063.9984000008553,True,False
21,2,1393.877877300023,circle,"(-480.0, -270.0)",0,1080.5330000002868,1080.5204000207596,True,False
21,2,1393.8945810000296,circle,"(-480.0, -270.0)",0,1097.2367000067607,1097.2241000272334,True,False
21,2,1393.911454199988,circle,"(-480.0, -270.0)",0,1114.109899965115,1114.0972999855876,True,False
21,2,1393.927991000004,circle,"(-480.0, -270.0)",0,1130.6466999812983,1130.634100001771,True,False
21,2,1393.9445180000039,circle,"(-480.0, -270.0)",0,1147.1736999810673,1147.16110000154,True,False
21,2,1393.9620958000305,circle,"(-480.0, -270.0)",0,1164.7515000076964,1164.7389000281692,True,False
21,2,1393.9781672999961,circle,"(-480.0, -270.0)",0,1180.8229999733157,1180.8103999937885,True,False
21,2,1393.994827800023,circle,"(-480.0, -270.0)",0,1197.4835000000894,1197.470900020562,True,False
21,2,1394.0115785999806,circle,"(-480.0, -270.0)",0,1214.2342999577522,1214.221699978225,True,False
21,2,1394.027981000021,circle,"(-480.0, -270.0)",0,1230.6366999982856,1230.6241000187583,True,False
21,2,1394.0448206000146,circle,"(-480.0, -270.0)",0,1247.4762999918312,1247.463700012304,True,False
21,2,1394.061288899975,circle,"(-480.0, -270.0)",0,1263.944599952083,1263.9319999725558,True,False
21,2,1394.0782259000116,circle,"(-480.0, -270.0)",0,1280.8815999887884,1280.869000009261,True,False
21,2,1394.094531300012,circle,"(-480.0, -270.0)",0,1297.1869999892078,1297.1744000096805,True,False
21,2,1394.1113932000007,circle,"(-480.0, -270.0)",0,1314.0488999779336,1314.0362999984063,True,False
21,2,1394.1279090000317,circle,"(-480.0, -270.0)",0,1330.5647000088356,1330.5521000293083,True,False
21,2,1394.1445733000292,circle,"(-480.0, -270.0)",0,1347.2290000063367,1347.2164000268094,True,False
21,2,1394.1614163999911,circle,"(-480.0, -270.0)",0,1364.0720999683253,1364.059499988798,True,False
21,2,1394.178215300024,circle,"(-480.0, -270.0)",0,1380.871000001207,1380.8584000216797,True,False
21,2,1394.1952233000193,circle,"(-480.0, -270.0)",0,1397.8789999964647,1397.8664000169374,True,False
21,2,1394.211633400002,circle,"(-480.0, -270.0)",0,1414.2890999792144,1414.276499999687,True,False
21,2,1394.2280388000072,circle,"(-480.0, -270.0)",0,1430.6944999843836,1430.6819000048563,True,False
21,2,1394.244655699993,circle,"(-480.0, -270.0)",0,1447.3113999702036,1447.2987999906763,True,False
21,2,1394.2616208000109,circle,"(-480.0, -270.0)",0,1464.2764999880455,1464.2639000085182,True,False
21,2,1394.2784723999794,circle,"(-480.0, -270.0)",0,1481.1280999565497,1481.1154999770224,True,False
21,2,1394.2947198000038,circle,"(-480.0, -270.0)",0,1497.3754999809898,1497.3629000014625,True,False
21,2,1394.3116222000099,circle,"(-480.0, -270.0)",0,1514.2778999870643,1514.265300007537,True,False
21,2,1394.3281838999828,circle,"(-480.0, -270.0)",0,1530.839599960018,1530.8269999804907,True,False
21,2,1394.3446946999757,circle,"(-480.0, -270.0)",0,1547.3503999528475,1547.3377999733202,True,False
21,2,1394.3612490000087,circle,"(-480.0, -270.0)",0,1563.9046999858692,1563.892100006342,True,False
21,2,1394.377749199979,circle,"(-480.0, -270.0)",0,1580.4048999561928,1580.3922999766655,True,False
21,2,1394.3948673999985,circle,"(-480.0, -270.0)",0,1597.5230999756604,1597.5104999961331,True,False
21,2,1394.4110851000296,circle,"(-480.0, -270.0)",0,1613.7408000067808,1613.7282000272535,True,False
21,2,1394.427935099986,circle,"(-480.0, -270.0)",0,1630.5907999631017,1630.5781999835745,True,False
21,2,1394.444383300026,circle,"(-480.0, -270.0)",0,1647.039000003133,1647.0264000236057,True,False
21,2,1394.4611936000292,circle,"(-480.0, -270.0)",0,1663.8493000064045,1663.8367000268772,True,False
21,2,1394.4780808999785,circle,"(-480.0, -270.0)",0,1680.7365999557078,1680.7239999761805,True,False
21,2,1394.4944122000015,circle,"(-480.0, -270.0)",0,1697.0678999787197,1697.0552999991924,True,False
21,2,1394.5113691000151,circle,"(-480.0, -270.0)",0,1714.0247999923304,1714.012200012803,True,False
21,2,1394.5279121000203,circle,"(-480.0, -270.0)",0,1730.567799997516,1730.5552000179887,True,False
21,2,1394.5446235000272,circle,"(-480.0, -270.0)",0,1747.2792000044137,1747.2666000248864,True,False
21,2,1394.5612394000054,circle,"(-480.0, -270.0)",0,1763.8950999826193,1763.882500003092,True,False
21,2,1394.5785775000113,circle,"(-480.0, -270.0)",0,1781.2331999884918,1781.2206000089645,True,False
