trial_num,selection_num,timestamp,shape,position,fixation_duration_ms,rt_from_trial_start_ms,rt_from_previous_selection_ms,queued_selection,was_executed
13,1,2270.3925033999985,circle,"(-480.0, -270.0)",0,0.012599994079209864,0.012599994079209864,False,True
13,2,2270.6545781000023,star,"(-480.0, 270.0)",260.0490000040736,262.0872999978019,262.0747000037227,True,False
13,2,2270.677572200002,star,"(-480.0, 270.0)",0,285.08139999757987,285.06880000350066,True,False
13,2,2270.688646099996,star,"(-480.0, 270.0)",0,296.15529999136925,296.14269999729004,True,False
13,2,2270.705132300005,star,"(-480.0, 270.0)",0,312.6415000006091,312.6289000065299,True,False
13,2,2270.725116699992,star,"(-480.0, 270.0)",0,332.62589998776093,332.6132999936817,True,False
13,2,2270.7411867000046,star,"(-480.0, 270.0)",0,348.69590000016615,348.68330000608694,True,False
13,2,2270.7584904999967,star,"(-480.0, 270.0)",0,365.99969999224413,365.9870999981649,True,False
13,2,2270.7718488999963,star,"(-480.0, 270.0)",0,379.3580999918049,379.3454999977257,True,False
13,2,2270.793234900004,star,"(-480.0, 270.0)",0,400.7440999994287,400.7315000053495,True,False
13,2,2270.806555599993,star,"(-480.0, 270.0)",0,414.0647999884095,414.0521999943303,True,False
13,2,2270.8224155999924,star,"(-480.0, 270.0)",0,429.9247999879299,429.91219999385066,True,False
13,2,2270.8419519000017,star,"(-480.0, 270.0)",0,449.46109999727923,449.4485000032,True,False
13,2,2270.8559527000034,star,"(-480.0, 270.0)",0,463.46189999894705,463.44930000486784,True,False
13,2,2270.8767320000043,star,"(-480.0, 270.0)",0,484.24119999981485,484.22860000573564,True,False
13,2,2270.8883835000015,star,"(-480.0, 270.0)",0,495.8926999970572,495.880100002978,True,False
13,2,2270.9050945999916,star,"(-480.0, 270.0)",0,512.6037999871187,512.5911999930395,True,False
13,2,2270.9249784999993,star,"(-480.0, 270.0)",0,532.4876999948174,532.4751000007382,True,False
13,2,2270.9383472000045,star,"(-480.0, 270.0)",0,545.8564000000479,545.8438000059687,True,False
13,2,2270.9584270999912,star,"(-480.0, 270.0)",0,565.9362999867881,565.9236999927089,True,False
13,2,2270.9716875000013,star,"(-480.0, 270.0)",0,579.1966999968281,579.1841000027489,True,False
13,2,2270.9924826999923,star,"(-480.0, 270.0)",0,599.9918999877991,599.9792999937199,True,False
13,2,2271.0054651999963,star,"(-480.0, 270.0)",0,612.9743999917991,612.9617999977199,True,False
13,2,2271.0227801,star,"(-480.0, 270.0)",0,630.2892999956384,630.2767000015592,True,False
13,2,2271.0425098999985,star,"(-480.0, 270.0)",0,650.0190999940969,650.0065000000177,True,False
13,2,2271.055376999997,star,"(-480.0, 270.0)",0,662.8861999924993,662.8735999984201,True,False
13,2,2271.0752011000004,star,"(-480.0, 270.0)",0,682.7102999959607,682.6977000018815,True,False
13,2,2271.0882958,star,"(-480.0, 270.0)",0,695.8049999957439,695.7924000016646,True,False
13,2,2271.104966400002,star,"(-480.0, 270.0)",0,712.4755999975605,712.4630000034813,True,False
13,2,2271.1251286000042,star,"(-480.0, 270.0)",0,732.6377999997931,732.6252000057139,True,False
13,2,2271.1404843000055,star,"(-480.0, 270.0)",0,747.99350000103,747.9809000069508,True,False
13,2,2271.158785599997,star,"(-480.0, 270.0)",0,766.2947999924654,766.2821999983862,True,False
13,2,2271.1722902000038,star,"(-480.0, 270.0)",0,779.7993999993196,779.7868000052404,True,False
13,2,2271.188744400002,star,"(-480.0, 270.0)",0,796.2535999977263,796.2410000036471,True,False
13,2,2271.208792499994,star,"(-480.0, 270.0)",0,816.3016999897081,816.2890999956289,True,False
13,2,2271.2219704000017,star,"(-480.0, 270.0)",0,829.4795999972848,829.4670000032056,True,False
13,2,2271.241918700005,star,"(-480.0, 270.0)",0,849.4279000005918,849.4153000065126,True,False
13,2,2271.257501400003,star,"(-480.0, 270.0)",0,865.0105999986408,864.9980000045616,True,False
13,2,2271.2744386999984,star,"(-480.0, 270.0)",0,881.9478999939747,881.9352999998955,True,False
13,2,2271.288185199999,star,"(-480.0, 270.0)",0,895.6943999946816,895.6818000006024,True,False
13,2,2271.3058351999935,star,"(-480.0, 270.0)",0,913.3443999890005,913.3317999949213,True,False
13,2,2271.3258710999944,star,"(-480.0, 270.0)",0,933.380299989949,933.3676999958698,True,False
13,2,2271.340799800004,star,"(-480.0, 270.0)",0,948.3089999994263,948.2964000053471,True,False
13,2,2271.358468999999,star,"(-480.0, 270.0)",0,965.9781999944244,965.9656000003451,True,False
13,2,2271.3715590999927,star,"(-480.0, 270.0)",0,979.0682999882847,979.0556999942055,True,False
13,2,2271.3922755999956,star,"(-480.0, 270.0)",0,999.7847999911755,999.7721999970963,True,False
13,2,2271.404416099991,star,"(-480.0, 270.0)",0,1011.9252999866148,1011.9126999925356,True,False
13,2,2271.421564899996,star,"(-480.0, 270.0)",0,1029.0740999917034,1029.0614999976242,True,False
13,2,2271.4416406999953,star,"(-480.0, 270.0)",0,1049.14989999088,1049.1372999968007,True,False
13,2,2271.4555375999917,star,"(-480.0, 270.0)",0,1063.0467999872053,1063.034199993126,True,False
13,2,2271.475594000003,star,"(-480.0, 270.0)",0,1083.1031999987317,1083.0906000046525,True,False
13,2,2271.4880363999982,star,"(-480.0, 270.0)",0,1095.545599993784,1095.5329999997048,True,False
13,2,2271.5044705000037,star,"(-480.0, 270.0)",0,1111.9796999992104,1111.9671000051312,True,False
13,2,2271.5242359999975,star,"(-480.0, 270.0)",0,1131.74519999302,1131.7325999989407,True,False
13,2,2271.541897899995,star,"(-480.0, 270.0)",0,1149.4070999906398,1149.3944999965606,True,False
13,2,2271.5588057999994,star,"(-480.0, 270.0)",0,1166.3149999949383,1166.302400000859,True,False
13,2,2271.572259499997,star,"(-480.0, 270.0)",0,1179.7686999925645,1179.7560999984853,True,False
13,2,2271.588548899992,star,"(-480.0, 270.0)",0,1196.0580999875674,1196.0454999934882,True,False
13,2,2271.6100995000015,star,"(-480.0, 270.0)",0,1217.608699997072,1217.596100002993,True,False
13,2,2271.623326000001,star,"(-480.0, 270.0)",0,1230.8351999963634,1230.8226000022842,True,False
13,2,2271.6417019999935,star,"(-480.0, 270.0)",0,1249.2111999890767,1249.1985999949975,True,False
13,2,2271.655042700004,star,"(-480.0, 270.0)",0,1262.55189999938,1262.539300005301,True,False
13,2,2271.674646899992,star,"(-480.0, 270.0)",0,1282.1560999873327,1282.1434999932535,True,False
13,2,2271.687512199991,star,"(-480.0, 270.0)",0,1295.021399986581,1295.0087999925017,True,False
13,2,2271.704496099992,star,"(-480.0, 270.0)",0,1312.0052999875043,1311.992699993425,True,False
13,2,2271.7250080999947,star,"(-480.0, 270.0)",0,1332.5172999902861,1332.504699996207,True,False
13,2,2271.738848599998,star,"(-480.0, 270.0)",0,1346.3577999937115,1346.3451999996323,True,False
13,2,2271.7595728000015,star,"(-480.0, 270.0)",0,1367.0819999970263,1367.069400002947,True,False
13,2,2271.7723272000003,star,"(-480.0, 270.0)",0,1379.8363999958383,1379.823800001759,True,False
13,2,2271.7900418999925,star,"(-480.0, 270.0)",0,1397.5510999880498,1397.5384999939706,True,False
13,2,2271.808128100005,star,"(-480.0, 270.0)",0,1415.637300000526,1415.6247000064468,True,False
13,2,2271.823378000001,star,"(-480.0, 270.0)",0,1430.887199996505,1430.8746000024257,True,False
13,2,2271.8405503999966,star,"(-480.0, 270.0)",0,1448.0595999921206,1448.0469999980414,True,False
13,2,2271.8567844999925,star,"(-480.0, 270.0)",0,1464.2936999880476,1464.2810999939684,True,False
13,2,2271.8749401999958,star,"(-480.0, 270.0)",0,1482.4493999913102,1482.436799997231,True,False
13,2,2271.8914430000004,star,"(-480.0, 270.0)",0,1498.9521999959834,1498.9396000019042,True,False
13,2,2271.907454100001,star,"(-480.0, 270.0)",0,1514.9632999964524,1514.9507000023732,True,False
13,2,2271.9261595999997,star,"(-480.0, 270.0)",0,1533.6687999952119,1533.6562000011327,True,False
13,2,2271.9396460999997,star,"(-480.0, 270.0)",0,1547.155299995211,1547.1427000011317,True,False
13,2,2271.957890299993,star,"(-480.0, 270.0)",0,1565.3994999884162,1565.386899994337,True,False
13,2,2271.9721263999963,star,"(-480.0, 270.0)",0,1579.6355999918887,1579.6229999978095,True,False
13,2,2271.989578599998,star,"(-480.0, 270.0)",0,1597.08779999346,1597.0751999993809,True,False
13,2,2272.006349499992,star,"(-480.0, 270.0)",0,1613.8586999877589,1613.8460999936797,True,False
13,2,2272.0233955000003,star,"(-480.0, 270.0)",0,1630.904699995881,1630.8921000018017,True,False
13,2,2272.041702100003,star,"(-480.0, 270.0)",0,1649.2112999985693,1649.19870000449,True,False
13,2,2272.0584799999924,star,"(-480.0, 270.0)",0,1665.989199987962,1665.9765999938827,True,False
13,2,2272.073962299997,star,"(-480.0, 270.0)",0,1681.4714999927673,1681.4588999986881,True,False
13,2,2272.0900403999985,star,"(-480.0, 270.0)",0,1697.5495999940904,1697.5370000000112,True,False
13,2,2272.106200299997,star,"(-480.0, 270.0)",0,1713.7094999925466,1713.6968999984674,True,False
13,2,2272.124540799996,star,"(-480.0, 270.0)",0,1732.0499999914318,1732.0373999973526,True,False
13,2,2272.139239099997,star,"(-480.0, 270.0)",0,1746.7482999927597,1746.7356999986805,True,False
13,2,2272.1595718000026,star,"(-480.0, 270.0)",0,1767.080999998143,1767.0684000040637,True,False
13,2,2272.873338499994,star,"(-480.0, 270.0)",264.3635999993421,2480.847699989681,2480.835099995602,False,True
13,3,2273.138205700001,star,"(-480.0, 270.0)",262.6544000086142,2745.7148999965284,264.86720000684727,True,False
13,3,2273.160531699992,star,"(-480.0, 270.0)",0,2768.0408999876818,287.19319999800064,True,False
13,3,2273.1712379999954,star,"(-480.0, 270.0)",0,2778.747199990903,297.8995000012219,True,False
13,3,2273.1876536000054,star,"(-480.0, 270.0)",0,2795.1628000009805,314.31510001129936,True,False
13,3,2273.208382500001,star,"(-480.0, 270.0)",0,2815.8916999964276,335.0440000067465,True,False
13,3,2273.220886700001,star,"(-480.0, 270.0)",0,2828.3958999963943,347.54820000671316,True,False
13,3,2273.240613300004,star,"(-480.0, 270.0)",0,2848.12249999959,367.2748000099091,True,False
13,3,2273.2542126000044,star,"(-480.0, 270.0)",0,2861.721799999941,380.87410001026,True,False
13,3,2273.273746199993,star,"(-480.0, 270.0)",0,2881.2553999887314,400.40769999905024,True,False
13,3,2273.287729200005,star,"(-480.0, 270.0)",0,2895.2384000003804,414.3907000106992,True,False
13,3,2273.305178499999,star,"(-480.0, 270.0)",0,2912.6876999944216,431.84000000474043,True,False
13,3,2273.3252648999915,star,"(-480.0, 270.0)",0,2932.774099987,451.9263999973191,True,False
13,3,2273.338373499995,star,"(-480.0, 270.0)",0,2945.8826999907615,465.03500000108033,True,False
13,3,2273.3588847999927,star,"(-480.0, 270.0)",0,2966.393999988213,485.54629999853205,True,False
13,3,2273.3713100000023,star,"(-480.0, 270.0)",0,2978.8191999978153,497.97150000813417,True,False
13,3,2273.3873998999916,star,"(-480.0, 270.0)",0,2994.909099987126,514.0613999974448,True,False
13,3,2273.407156599991,star,"(-480.0, 270.0)",0,3014.6657999866875,533.8180999970064,True,False
13,3,2273.420779399996,star,"(-480.0, 270.0)",0,3028.288599991356,547.4409000016749,True,False
13,3,2273.440368399999,star,"(-480.0, 270.0)",0,3047.8775999945356,567.0299000048544,True,False
13,3,2273.4538302,star,"(-480.0, 270.0)",0,3061.3393999956315,580.4917000059504,True,False
13,3,2273.474327499993,star,"(-480.0, 270.0)",0,3081.8366999883438,600.9889999986626,True,False
13,3,2273.4870964,star,"(-480.0, 270.0)",0,3094.6055999957025,613.7579000060214,True,False
13,3,2273.503502199994,star,"(-480.0, 270.0)",0,3111.0113999893656,630.1636999996845,True,False
13,3,2273.527601499998,star,"(-480.0, 270.0)",0,3135.1106999936746,654.2630000039935,True,False
13,3,2273.5385993999953,star,"(-480.0, 270.0)",0,3146.108599990839,665.260900001158,True,False
13,3,2273.5573079000023,star,"(-480.0, 270.0)",0,3164.81709999789,683.969400008209,True,False
13,3,2273.5704758999927,star,"(-480.0, 270.0)",0,3177.985099988291,697.1373999986099,True,False
13,3,2273.5872208999936,star,"(-480.0, 270.0)",0,3194.7300999891013,713.8823999994202,True,False
13,3,2273.6090833000053,star,"(-480.0, 270.0)",0,3216.592500000843,735.7448000111617,True,False
13,3,2273.622749999995,star,"(-480.0, 270.0)",0,3230.2591999905417,749.4115000008605,True,False
13,3,2273.642930499991,star,"(-480.0, 270.0)",0,3250.4396999866003,769.5919999969192,True,False
13,3,2273.655119999996,star,"(-480.0, 270.0)",0,3262.629199991352,781.7815000016708,True,False
13,3,2273.6744065999956,star,"(-480.0, 270.0)",0,3281.9157999911113,801.0681000014301,True,False
13,3,2273.687616700001,star,"(-480.0, 270.0)",0,3295.125899996492,814.278200006811,True,False
13,3,2273.7033995999955,star,"(-480.0, 270.0)",0,3310.9087999910116,830.0611000013305,True,False
13,3,2273.723404999997,star,"(-480.0, 270.0)",0,3330.9141999925487,850.0665000028675,True,False
13,3,2273.737831999999,star,"(-480.0, 270.0)",0,3345.3411999944365,864.4935000047553,True,False
13,3,2273.7578517999937,star,"(-480.0, 270.0)",0,3365.360999989207,884.5132999995258,True,False
13,3,2273.7715441000037,star,"(-480.0, 270.0)",0,3379.053299999214,898.2056000095326,True,False
13,3,2273.7878702000016,star,"(-480.0, 270.0)",0,3395.379399997182,914.5317000075011,True,False
13,3,2273.8080196999945,star,"(-480.0, 270.0)",0,3415.528899990022,934.681200000341,True,False
13,3,2273.826972900002,star,"(-480.0, 270.0)",0,3434.4820999976946,953.6344000080135,True,False
13,3,2273.8410436999984,star,"(-480.0, 270.0)",0,3448.552899993956,967.705200004275,True,False
13,3,2273.8539648000005,star,"(-480.0, 270.0)",0,3461.4739999960875,980.6263000064064,True,False
13,3,2273.8733544999996,star,"(-480.0, 270.0)",0,3480.8636999950977,1000.0160000054166,True,False
13,3,2273.888184800002,star,"(-480.0, 270.0)",0,3495.6939999974566,1014.8463000077754,True,False
13,3,2273.903739699992,star,"(-480.0, 270.0)",0,3511.2488999875495,1030.4011999978684,True,False
13,3,2273.9245223000034,star,"(-480.0, 270.0)",0,3532.0314999989932,1051.183800009312,True,False
13,3,2273.938102400003,star,"(-480.0, 270.0)",0,3545.611599998665,1064.763900008984,True,False
13,3,2273.9583203999937,star,"(-480.0, 270.0)",0,3565.829599989229,1084.9818999995477,True,False
13,3,2273.9712475999986,star,"(-480.0, 270.0)",0,3578.756799994153,1097.9091000044718,True,False
13,3,2273.9875164999976,star,"(-480.0, 270.0)",0,3595.02569999313,1114.1780000034487,True,False
13,3,2274.0069899999944,star,"(-480.0, 270.0)",0,3614.4991999899503,1133.6515000002692,True,False
13,3,2274.0200613999914,star,"(-480.0, 270.0)",0,3627.5705999869388,1146.7228999972576,True,False
13,3,2274.039825899992,star,"(-480.0, 270.0)",0,3647.3350999876857,1166.4873999980045,True,False
13,3,2274.0533824000013,star,"(-480.0, 270.0)",0,3660.8915999968303,1180.0439000071492,True,False
13,3,2274.0733504999953,star,"(-480.0, 270.0)",0,3680.859699990833,1200.012000001152,True,False
13,3,2274.0872994999954,star,"(-480.0, 270.0)",0,3694.808699990972,1213.9610000012908,True,False
13,3,2274.1046485999977,star,"(-480.0, 270.0)",0,3712.1577999932924,1231.3101000036113,True,False
13,3,2274.123719199997,star,"(-480.0, 270.0)",0,3731.2283999926876,1250.3807000030065,True,False
13,3,2274.1370353999955,star,"(-480.0, 270.0)",0,3744.544599991059,1263.6969000013778,True,False
13,3,2274.1565248999977,star,"(-480.0, 270.0)",0,3764.034099993296,1283.1864000036148,True,False
13,3,2274.1701404999912,star,"(-480.0, 270.0)",0,3777.649699986796,1296.8019999971148,True,False
13,3,2274.186610100005,star,"(-480.0, 270.0)",0,3794.1193000006024,1313.2716000109212,True,False
13,3,2274.2073103000002,star,"(-480.0, 270.0)",0,3814.8194999957923,1333.9718000061112,True,False
13,3,2274.220772600005,star,"(-480.0, 270.0)",0,3828.2818000006955,1347.4341000110144,True,False
13,3,2274.241838499991,star,"(-480.0, 270.0)",0,3849.347699986538,1368.4999999968568,True,False
13,3,2274.2609679000016,star,"(-480.0, 270.0)",0,3868.477099997108,1387.6294000074267,True,False
13,3,2274.273876499996,star,"(-480.0, 270.0)",0,3881.3856999913696,1400.5380000016885,True,False
13,3,2274.2868023000046,star,"(-480.0, 270.0)",0,3894.3115000001853,1413.4638000105042,True,False
13,3,2274.303246399999,star,"(-480.0, 270.0)",0,3910.755599994445,1429.907900004764,True,False
13,3,2274.3234529000038,star,"(-480.0, 270.0)",0,3930.962099999306,1450.1144000096247,True,False
13,3,2274.3368410999974,star,"(-480.0, 270.0)",0,3944.350299992948,1463.5026000032667,True,False
13,3,2274.358102600003,star,"(-480.0, 270.0)",0,3965.6117999984417,1484.7641000087606,True,False
13,3,2274.371122700002,star,"(-480.0, 270.0)",0,3978.6318999977084,1497.7842000080273,True,False
13,3,2274.3879683999985,star,"(-480.0, 270.0)",0,3995.4775999940466,1514.6299000043655,True,False
13,3,2274.406723399996,star,"(-480.0, 270.0)",0,4014.2325999913737,1533.3849000016926,True,False
13,3,2274.4201919000043,star,"(-480.0, 270.0)",0,4027.701099999831,1546.85340001015,True,False
13,3,2274.439959800002,star,"(-480.0, 270.0)",0,4047.4689999973634,1566.6213000076823,True,False
13,3,2274.453231099993,star,"(-480.0, 270.0)",0,4060.740299988538,1579.892599998857,True,False
13,3,2274.4736254000018,star,"(-480.0, 270.0)",0,4081.1345999973128,1600.2869000076316,True,False
13,3,2274.486428899996,star,"(-480.0, 270.0)",0,4093.9380999916466,1613.0904000019655,True,False
13,3,2274.503650400002,star,"(-480.0, 270.0)",0,4111.159599997336,1630.311900007655,True,False
13,3,2274.5250124000013,star,"(-480.0, 270.0)",0,4132.521599996835,1651.6739000071539,True,False
13,3,2274.537618400005,star,"(-480.0, 270.0)",0,4145.127600000706,1664.2799000110244,True,False
13,3,2274.5570606999972,star,"(-480.0, 270.0)",0,4164.5698999927845,1683.7222000031034,True,False
13,3,2274.5701438999968,star,"(-480.0, 270.0)",0,4177.6530999923125,1696.8054000026314,True,False
13,3,2274.5871628000023,star,"(-480.0, 270.0)",0,4194.671999997809,1713.8243000081275,True,False
13,3,2274.6077560999984,star,"(-480.0, 270.0)",0,4215.265299993916,1734.4176000042353,True,False
13,3,2274.6214852999983,star,"(-480.0, 270.0)",0,4228.99449999386,1748.1468000041787,True,False
13,3,2274.642214899999,star,"(-480.0, 270.0)",0,4249.724099994637,1768.876400004956,True,False
13,3,2276.5410739999934,cross,"(480.0, -270.0)",254.38249998842366,6148.583199988934,3667.735499999253,False,True
13,4,2278.3395314999943,t,"(480.0, 270.0)",620.5109000002267,7947.040699989884,1798.45750000095,False,True
14,1,2282.439519499996,circle,"(-480.0, -270.0)",0,0.011399999493733048,0.011399999493733048,False,True
14,2,2283.2881161999976,circle,"(-480.0, -270.0)",266.2467000045581,848.6081000010017,848.596700001508,True,False
14,2,2283.302813400005,circle,"(-480.0, -270.0)",0,863.3053000085056,863.2939000090118,True,False
14,2,2283.318206099997,circle,"(-480.0, -270.0)",0,878.6980000004405,878.6866000009468,True,False
14,2,2283.337388300002,circle,"(-480.0, -270.0)",0,897.8802000056021,897.8688000061084,True,False
14,2,2283.3510510999913,circle,"(-480.0, -270.0)",0,911.5429999947082,911.5315999952145,True,False
14,2,2283.3713377999957,circle,"(-480.0, -270.0)",0,931.8296999990707,931.818299999577,True,False
14,2,2283.384460999994,circle,"(-480.0, -270.0)",0,944.9528999975882,944.9414999980945,True,False
14,2,2283.401047399995,circle,"(-480.0, -270.0)",0,961.5392999985488,961.5278999990551,True,False
14,2,2283.420341499994,circle,"(-480.0, -270.0)",0,980.8333999972092,980.8219999977155,True,False
14,2,2283.4338694000035,circle,"(-480.0, -270.0)",0,994.3613000068581,994.3499000073643,True,False
14,2,2283.4534330000024,circle,"(-480.0, -270.0)",0,1013.9249000058044,1013.9135000063106,True,False
14,2,2283.4669394999946,circle,"(-480.0, -270.0)",0,1027.4313999980222,1027.4199999985285,True,False
14,2,2283.4872212000046,circle,"(-480.0, -270.0)",0,1047.713100007968,1047.7017000084743,True,False
14,2,2283.5004352999968,circle,"(-480.0, -270.0)",0,1060.927200000151,1060.9158000006573,True,False
14,2,2283.517082999999,circle,"(-480.0, -270.0)",0,1077.5749000022188,1077.563500002725,True,False
14,2,2283.5385586000048,circle,"(-480.0, -270.0)",0,1099.0505000081612,1099.0391000086674,True,False
14,2,2283.550623999996,circle,"(-480.0, -270.0)",0,1111.1158999992767,1111.104499999783,True,False
14,2,2283.570694299997,circle,"(-480.0, -270.0)",0,1131.1862000002293,1131.1748000007356,True,False
14,2,2283.584483800005,circle,"(-480.0, -270.0)",0,1144.9757000082172,1144.9643000087235,True,False
14,2,2283.6010239000025,circle,"(-480.0, -270.0)",0,1161.5158000058727,1161.504400006379,True,False
14,2,2283.6219216000027,circle,"(-480.0, -270.0)",0,1182.4135000060778,1182.402100006584,True,False
14,2,2283.6347828,circle,"(-480.0, -270.0)",0,1195.2747000032105,1195.2633000037167,True,False
14,2,2283.654212499998,circle,"(-480.0, -270.0)",0,1214.7044000012102,1214.6930000017164,True,False
14,2,2283.6670951999986,circle,"(-480.0, -270.0)",0,1227.5871000019833,1227.5757000024896,True,False
14,2,2283.6866968999966,circle,"(-480.0, -270.0)",0,1247.1888000000035,1247.1774000005098,True,False
14,2,2283.700230000002,circle,"(-480.0, -270.0)",0,1260.721900005592,1260.7105000060983,True,False
14,2,2283.717149899996,circle,"(-480.0, -270.0)",0,1277.641799999401,1277.6303999999072,True,False
14,2,2283.7373878999933,circle,"(-480.0, -270.0)",0,1297.8797999967355,1297.8683999972418,True,False
14,2,2283.7505678000016,circle,"(-480.0, -270.0)",0,1311.0597000049893,1311.0483000054955,True,False
14,2,2283.772058100003,circle,"(-480.0, -270.0)",0,1332.5500000064494,1332.5386000069557,True,False
14,2,2283.7847327999916,circle,"(-480.0, -270.0)",0,1345.2246999950148,1345.213299995521,True,False
14,2,2283.800535400005,circle,"(-480.0, -270.0)",0,1361.0273000085726,1361.015900009079,True,False
14,2,2283.8211138000042,circle,"(-480.0, -270.0)",0,1381.6057000076398,1381.594300008146,True,False
14,2,2283.834078999993,circle,"(-480.0, -270.0)",0,1394.5708999963244,1394.5594999968307,True,False
14,2,2283.8545835999976,circle,"(-480.0, -270.0)",0,1415.0755000009667,1415.064100001473,True,False
14,2,2283.872827600004,circle,"(-480.0, -270.0)",0,1433.319500007201,1433.3081000077073,True,False
14,2,2283.8851613000006,circle,"(-480.0, -270.0)",0,1445.653200004017,1445.6418000045232,True,False
14,2,2283.9048997999926,circle,"(-480.0, -270.0)",0,1465.391699995962,1465.3802999964682,True,False
14,2,2283.9179988999967,circle,"(-480.0, -270.0)",0,1478.490800000145,1478.4794000006514,True,False
14,2,2283.9366838999995,circle,"(-480.0, -270.0)",0,1497.1758000028785,1497.1644000033848,True,False
14,2,2283.9502221000002,circle,"(-480.0, -270.0)",0,1510.7140000036452,1510.7026000041515,True,False
14,2,2283.9699784999975,circle,"(-480.0, -270.0)",0,1530.4704000009224,1530.4590000014286,True,False
14,2,2283.9837095999974,circle,"(-480.0, -270.0)",0,1544.2015000007814,1544.1901000012876,True,False
14,2,2284.000913099997,circle,"(-480.0, -270.0)",0,1561.4050000003772,1561.3936000008835,True,False
14,2,2284.0210238,circle,"(-480.0, -270.0)",0,1581.515700003365,1581.5043000038713,True,False
14,2,2284.0337285999994,circle,"(-480.0, -270.0)",0,1594.220500002848,1594.2091000033543,True,False
14,2,2284.0533645999967,circle,"(-480.0, -270.0)",0,1613.8565000001108,1613.845100000617,True,False
14,2,2284.0668455999985,circle,"(-480.0, -270.0)",0,1627.337500001886,1627.3261000023922,True,False
14,2,2284.083284799999,circle,"(-480.0, -270.0)",0,1643.7767000024905,1643.7653000029968,True,False
14,2,2284.1034433000023,circle,"(-480.0, -270.0)",0,1663.9352000056533,1663.9238000061596,True,False
14,2,2284.118255399997,circle,"(-480.0, -270.0)",0,1678.7473000003956,1678.735900000902,True,False
14,2,2284.1374555999937,circle,"(-480.0, -270.0)",0,1697.947499997099,1697.9360999976052,True,False
14,2,2284.150482500001,circle,"(-480.0, -270.0)",0,1710.9744000044884,1710.9630000049947,True,False
14,2,2284.1699560999987,circle,"(-480.0, -270.0)",0,1730.4480000020703,1730.4366000025766,True,False
14,2,2284.184148600005,circle,"(-480.0, -270.0)",0,1744.640500008245,1744.6291000087513,True,False
14,2,2284.200108899997,circle,"(-480.0, -270.0)",0,1760.6008000002475,1760.5894000007538,True,False
14,2,2284.220204700003,circle,"(-480.0, -270.0)",0,1780.6966000061948,1780.685200006701,True,False
14,2,2285.034323999993,star,"(-480.0, 270.0)",264.72629999625497,2594.81589999632,2594.804499996826,False,True
14,3,2285.5212578999926,t,"(480.0, 270.0)",253.29889998829458,3081.7497999960324,486.9338999997126,True,False
14,3,2285.5361794000055,t,"(480.0, 270.0)",0,3096.671300008893,501.8554000125732,True,False
14,3,2285.550916399996,t,"(480.0, 270.0)",0,3111.4082999993116,516.5924000029918,True,False
14,3,2285.570150700005,t,"(480.0, 270.0)",0,3130.6426000082865,535.8267000119668,True,False
14,3,2285.5834194000054,t,"(480.0, 270.0)",0,3143.9113000087673,549.0954000124475,True,False
14,3,2285.6036065999942,t,"(480.0, 270.0)",0,3164.0984999976354,569.2826000013156,True,False
14,3,2285.6167471999943,t,"(480.0, 270.0)",0,3177.239099997678,582.423200001358,True,False
14,3,2285.6333120999916,t,"(480.0, 270.0)",0,3193.803999994998,598.9880999986781,True,False
14,3,2285.654662300003,t,"(480.0, 270.0)",0,3215.154200006509,620.3383000101894,True,False
14,3,2285.669927199997,t,"(480.0, 270.0)",0,3230.41910000029,635.6032000039704,True,False
14,3,2285.6873644000007,t,"(480.0, 270.0)",0,3247.8563000040594,653.0404000077397,True,False
14,3,2285.7000114999973,t,"(480.0, 270.0)",0,3260.5034000007436,665.6875000044238,True,False
14,3,2285.720742000005,t,"(480.0, 270.0)",0,3281.233900008374,686.4180000120541,True,False
14,3,2285.7337401999976,t,"(480.0, 270.0)",0,3294.2321000009542,699.4162000046344,True,False
14,3,2285.750360299993,t,"(480.0, 270.0)",0,3310.8521999965888,716.036300000269,True,False
14,3,2285.770751200005,t,"(480.0, 270.0)",0,3331.243100008578,736.4272000122583,True,False
14,3,2285.7836179000005,t,"(480.0, 270.0)",0,3344.1098000039347,749.2939000076149,True,False
14,3,2285.8040977999917,t,"(480.0, 270.0)",0,3364.589699995122,769.7737999988021,True,False
14,3,2285.805885199996,star,"(-480.0, 270.0)",253.0621999903815,3366.3770999992266,771.5612000029068,True,False
14,3,2285.8188567000034,star,"(-480.0, 270.0)",0,3379.3486000067787,784.5327000104589,True,False
14,3,2285.8331172000035,star,"(-480.0, 270.0)",0,3393.60910000687,798.7932000105502,True,False
14,3,2285.8537227999914,star,"(-480.0, 270.0)",0,3414.2146999947727,819.3987999984529,True,False
14,3,2285.8672178999986,star,"(-480.0, 270.0)",0,3427.7098000020487,832.8939000057289,True,False
14,3,2285.8871930000023,star,"(-480.0, 270.0)",0,3447.6849000056973,852.8690000093775,True,False
14,3,2285.8998769000027,star,"(-480.0, 270.0)",0,3460.3688000061084,865.5529000097886,True,False
14,3,2285.920282399995,star,"(-480.0, 270.0)",0,3480.774299998302,885.9584000019822,True,False
14,3,2285.933448800002,star,"(-480.0, 270.0)",0,3493.9407000056235,899.1248000093037,True,False
14,3,2285.9496082999976,star,"(-480.0, 270.0)",0,3510.100200001034,915.2843000047142,True,False
14,3,2285.970311600002,star,"(-480.0, 270.0)",0,3530.803500005277,935.9876000089571,True,False
14,3,2285.9833125000005,star,"(-480.0, 270.0)",0,3543.8044000038644,948.9885000075446,True,False
14,3,2286.003723799993,star,"(-480.0, 270.0)",0,3564.2156999965664,969.3998000002466,True,False
14,3,2286.0173601999995,star,"(-480.0, 270.0)",0,3577.8521000029286,983.0362000066089,True,False
14,3,2286.0331121999916,star,"(-480.0, 270.0)",0,3593.604099994991,998.7881999986712,True,False
14,3,2286.0532289999974,star,"(-480.0, 270.0)",0,3613.7209000007715,1018.9050000044517,True,False
14,3,2286.066940699995,star,"(-480.0, 270.0)",0,3627.4325999984285,1032.6167000021087,True,False
14,3,2286.087111300003,star,"(-480.0, 270.0)",0,3647.603200006415,1052.7873000100954,True,False
14,3,2286.100254899997,star,"(-480.0, 270.0)",0,3660.7468000001973,1065.9309000038775,True,False
14,3,2286.123091100002,star,"(-480.0, 270.0)",0,3683.5830000054557,1088.767100009136,True,False
14,3,2286.1337471000006,star,"(-480.0, 270.0)",0,3694.2390000040177,1099.423100007698,True,False
14,3,2286.149965599994,star,"(-480.0, 270.0)",0,3710.457499997574,1115.6416000012541,True,False
14,3,2286.1702047,star,"(-480.0, 270.0)",0,3730.6966000032844,1135.8807000069646,True,False
14,3,2286.1835579000035,star,"(-480.0, 270.0)",0,3744.0498000069056,1149.2339000105858,True,False
14,3,2286.203408500005,star,"(-480.0, 270.0)",0,3763.900400008424,1169.0845000121044,True,False
14,3,2286.216614899997,star,"(-480.0, 270.0)",0,3777.1068000001833,1182.2909000038635,True,False
14,3,2286.2336109000025,star,"(-480.0, 270.0)",0,3794.1028000059305,1199.2869000096107,True,False
14,3,2286.253518800004,star,"(-480.0, 270.0)",0,3814.010700007202,1219.1948000108823,True,False
14,3,2286.270109799996,star,"(-480.0, 270.0)",0,3830.6016999995336,1235.7858000032138,True,False
14,3,2286.286548899996,star,"(-480.0, 270.0)",0,3847.0407999993768,1252.224900003057,True,False
14,3,2286.2999710000004,star,"(-480.0, 270.0)",0,3860.4629000037676,1265.6470000074478,True,False
14,3,2286.3199361000006,star,"(-480.0, 270.0)",0,3880.4280000040308,1285.612100007711,True,False
14,3,2286.3331767000054,star,"(-480.0, 270.0)",0,3893.668600008823,1298.8527000125032,True,False
14,3,2286.349821399999,star,"(-480.0, 270.0)",0,3910.313300002599,1315.4974000062793,True,False
14,3,2286.3709473999916,star,"(-480.0, 270.0)",0,3931.439299994963,1336.6233999986434,True,False
14,3,2286.3833929999964,star,"(-480.0, 270.0)",0,3943.88489999983,1349.0690000035102,True,False
14,3,2286.4038486999925,star,"(-480.0, 270.0)",0,3964.3405999959214,1369.5246999996016,True,False
14,3,2286.416471999997,star,"(-480.0, 270.0)",0,3976.9639000005554,1382.1480000042357,True,False
14,3,2286.4327235999954,star,"(-480.0, 270.0)",0,3993.215499998769,1398.399600002449,True,False
14,3,2286.452622900004,star,"(-480.0, 270.0)",0,4013.1148000073154,1418.2989000109956,True,False
14,3,2286.4685328999913,star,"(-480.0, 270.0)",0,4029.0247999946587,1434.208899998339,True,False
14,3,2286.4862084999913,star,"(-480.0, 270.0)",0,4046.7003999947337,1451.884499998414,True,False
14,3,2286.499729300005,star,"(-480.0, 270.0)",0,4060.2212000085274,1465.4053000122076,True,False
14,3,2286.5213588000042,star,"(-480.0, 270.0)",0,4081.850700007635,1487.0348000113154,True,False
14,3,2286.533586099991,star,"(-480.0, 270.0)",0,4094.0779999946244,1499.2620999983046,True,False
14,3,2286.5498728999955,star,"(-480.0, 270.0)",0,4110.364799998933,1515.5489000026137,True,False
14,3,2286.5698376999935,star,"(-480.0, 270.0)",0,4130.329599996912,1535.5137000005925,True,False
14,3,2286.5831413999986,star,"(-480.0, 270.0)",0,4143.633300001966,1548.817400005646,True,False
14,3,2286.603162600004,star,"(-480.0, 270.0)",0,4163.654500007397,1568.8386000110768,True,False
14,3,2286.616168099994,star,"(-480.0, 270.0)",0,4176.659999997355,1581.8441000010353,True,False
14,3,2286.633223500001,star,"(-480.0, 270.0)",0,4193.715400004294,1598.899500007974,True,False
14,3,2286.652910100005,star,"(-480.0, 270.0)",0,4213.4020000085,1618.5861000121804,True,False
14,3,2286.6663988999935,star,"(-480.0, 270.0)",0,4226.890799996909,1632.074900000589,True,False
14,3,2286.6904559999966,star,"(-480.0, 270.0)",0,4250.947900000028,1656.1320000037085,True,False
14,3,2286.6998635999917,star,"(-480.0, 270.0)",0,4260.3554999950575,1665.5395999987377,True,False
14,3,2286.7191486999945,star,"(-480.0, 270.0)",0,4279.640599997947,1684.8247000016272,True,False
14,3,2286.732908399994,star,"(-480.0, 270.0)",0,4293.400299997302,1698.584400000982,True,False
14,3,2286.748988799998,star,"(-480.0, 270.0)",0,4309.480700001586,1714.6648000052664,True,False
14,3,2286.771049899995,star,"(-480.0, 270.0)",0,4331.5417999983765,1736.7259000020567,True,False
14,3,2286.783375999992,star,"(-480.0, 270.0)",0,4343.86789999553,1749.0519999992102,True,False
14,3,2286.803208700003,star,"(-480.0, 270.0)",0,4363.700600006268,1768.8847000099486,True,False
14,3,2286.8163281000016,star,"(-480.0, 270.0)",0,4376.820000004955,1782.0041000086349,True,False
14,3,2286.832745099993,star,"(-480.0, 270.0)",0,4393.236999996589,1798.4211000002688,True,False
15,1,2294.3358624999964,circle,"(-480.0, -270.0)",0,0.011199997970834374,0.011199997970834374,False,True
15,2,2294.6001203999913,circle,"(-480.0, -270.0)",262.66529998974875,264.26909999281634,264.2578999948455,True,False
15,2,2294.6163108000037,circle,"(-480.0, -270.0)",0,280.4595000052359,280.44830000726506,True,False
15,2,2294.633500099997,circle,"(-480.0, -270.0)",0,297.6487999985693,297.63760000059847,True,False
15,2,2294.6468393999967,circle,"(-480.0, -270.0)",0,310.9880999982124,310.9769000002416,True,False
15,2,2294.6631551000028,circle,"(-480.0, -270.0)",0,327.3038000043016,327.29260000633076,True,False
15,2,2294.6833710999927,circle,"(-480.0, -270.0)",0,347.51979999418836,347.5085999962175,True,False
15,2,2294.696652999992,circle,"(-480.0, -270.0)",0,360.801699993317,360.7904999953462,True,False
15,2,2294.716910899995,circle,"(-480.0, -270.0)",0,381.05959999666084,381.04839999869,True,False
15,2,2294.7303991999943,circle,"(-480.0, -270.0)",0,394.5478999958141,394.53669999784324,True,False
15,2,2294.7503889999934,circle,"(-480.0, -270.0)",0,414.53769999498036,414.5264999970095,True,False
15,2,2294.7635504999926,circle,"(-480.0, -270.0)",0,427.69919999409467,427.68799999612384,True,False
15,2,2294.7799533999932,circle,"(-480.0, -270.0)",0,444.10209999477956,444.09089999680873,True,False
15,2,2294.7999928999925,circle,"(-480.0, -270.0)",0,464.14159999403637,464.13039999606553,True,False
15,2,2294.8136011000024,circle,"(-480.0, -270.0)",0,477.7498000039486,477.7386000059778,True,False
15,2,2294.8332836000045,circle,"(-480.0, -270.0)",0,497.43230000603944,497.4211000080686,True,False
15,2,2294.8471932999964,circle,"(-480.0, -270.0)",0,511.3419999979669,511.3307999999961,True,False
15,2,2294.867971300002,circle,"(-480.0, -270.0)",0,532.1200000034878,532.108800005517,True,False
15,2,2294.8844369,circle,"(-480.0, -270.0)",0,548.5856000013882,548.5744000034174,True,False
15,2,2294.8993899999914,circle,"(-480.0, -270.0)",0,563.5386999929324,563.5274999949615,True,False
15,2,2294.916777899998,circle,"(-480.0, -270.0)",0,580.9265999996569,580.9154000016861,True,False
15,2,2294.9299627,circle,"(-480.0, -270.0)",0,594.1114000015659,594.1002000035951,True,False
15,2,2294.9497654000006,circle,"(-480.0, -270.0)",0,613.9141000021482,613.9029000041774,True,False
15,2,2294.9633253999928,circle,"(-480.0, -270.0)",0,627.4740999942878,627.462899996317,True,False
15,2,2294.980868800005,circle,"(-480.0, -270.0)",0,645.0175000063609,645.0063000083901,True,False
15,2,2295.000696999996,circle,"(-480.0, -270.0)",0,664.845699997386,664.8344999994151,True,False
15,2,2295.015672099995,circle,"(-480.0, -270.0)",0,679.8207999963779,679.8095999984071,True,False
15,2,2295.0356081999926,circle,"(-480.0, -270.0)",0,699.7568999940995,699.7456999961287,True,False
15,2,2295.0485492000007,circle,"(-480.0, -270.0)",0,712.6979000022402,712.6867000042694,True,False
15,2,2295.071822500002,circle,"(-480.0, -270.0)",0,735.9712000034051,735.9600000054343,True,False
15,2,2295.092050799998,circle,"(-480.0, -270.0)",0,756.1994999996386,756.1883000016678,True,False
15,2,2295.113039399992,circle,"(-480.0, -270.0)",0,777.1880999935092,777.1768999955384,True,False
15,2,2295.129973999996,circle,"(-480.0, -270.0)",0,794.1226999973878,794.111499999417,True,False
15,2,2295.151348600004,circle,"(-480.0, -270.0)",0,815.4973000055179,815.4861000075471,True,False
15,2,2295.163846700001,circle,"(-480.0, -270.0)",0,827.9954000026919,827.9842000047211,True,False
15,2,2295.179986599993,circle,"(-480.0, -270.0)",0,844.1352999943774,844.1240999964066,True,False
15,2,2295.200183599998,circle,"(-480.0, -270.0)",0,864.3322999996599,864.321100001689,True,False
15,2,2295.2152755999996,circle,"(-480.0, -270.0)",0,879.4243000011193,879.4131000031484,True,False
15,2,2295.2341171000007,circle,"(-480.0, -270.0)",0,898.2658000022639,898.254600004293,True,False
15,2,2295.248649400004,circle,"(-480.0, -270.0)",0,912.7981000056025,912.7869000076316,True,False
15,2,2295.2682319000014,circle,"(-480.0, -270.0)",0,932.3806000029435,932.3694000049727,True,False
15,2,2295.280724700002,circle,"(-480.0, -270.0)",0,944.8734000034165,944.8622000054456,True,False
15,2,2295.2966989999986,circle,"(-480.0, -270.0)",0,960.8477000001585,960.8365000021877,True,False
15,2,2295.3172063999955,circle,"(-480.0, -270.0)",0,981.3550999970175,981.3438999990467,True,False
15,2,2295.330578299996,circle,"(-480.0, -270.0)",0,994.7269999975106,994.7157999995397,True,False
15,2,2295.3506376000005,circle,"(-480.0, -270.0)",0,1014.7863000020152,1014.7751000040444,True,False
15,2,2295.3641049,circle,"(-480.0, -270.0)",0,1028.2536000013351,1028.2424000033643,True,False
15,2,2295.3841748999985,circle,"(-480.0, -270.0)",0,1048.3236000000034,1048.3124000020325,True,False
15,2,2295.397494100005,circle,"(-480.0, -270.0)",0,1061.6428000066662,1061.6316000086954,True,False
15,2,2295.4151822999993,circle,"(-480.0, -270.0)",0,1079.3310000008205,1079.3198000028497,True,False
15,2,2295.433818999998,circle,"(-480.0, -270.0)",0,1097.9676999995718,1097.956500001601,True,False
15,2,2295.4467414999963,circle,"(-480.0, -270.0)",0,1110.8901999978116,1110.8789999998407,True,False
15,2,2295.466905299996,circle,"(-480.0, -270.0)",0,1131.0539999976754,1131.0427999997046,True,False
15,2,2295.4795644999977,circle,"(-480.0, -270.0)",0,1143.7131999991834,1143.7020000012126,True,False
15,2,2295.4985006999923,circle,"(-480.0, -270.0)",0,1162.6493999938248,1162.638199995854,True,False
15,2,2295.518205799992,circle,"(-480.0, -270.0)",0,1182.3544999933802,1182.3432999954093,True,False
15,2,2295.5309716000047,circle,"(-480.0, -270.0)",0,1195.1203000062378,1195.109100008267,True,False
15,2,2295.551181200004,circle,"(-480.0, -270.0)",0,1215.3299000055995,1215.3187000076286,True,False
15,2,2295.5640338999947,circle,"(-480.0, -270.0)",0,1228.1825999962166,1228.1713999982458,True,False
15,2,2295.5807747999934,circle,"(-480.0, -270.0)",0,1244.9234999949113,1244.9122999969404,True,False
15,2,2295.601327199998,circle,"(-480.0, -270.0)",0,1265.4758999997284,1265.4647000017576,True,False
15,2,2295.6156326999917,circle,"(-480.0, -270.0)",0,1279.781399993226,1279.770199995255,True,False
15,2,2295.6347337000043,circle,"(-480.0, -270.0)",0,1298.882400005823,1298.8712000078522,True,False
15,2,2295.648302100002,circle,"(-480.0, -270.0)",0,1312.4508000037167,1312.439600005746,True,False
15,2,2295.667037399995,circle,"(-480.0, -270.0)",0,1331.1860999965575,1331.1748999985866,True,False
15,2,2295.680733500005,circle,"(-480.0, -270.0)",0,1344.8822000063956,1344.8710000084247,True,False
15,2,2295.6980174999917,circle,"(-480.0, -270.0)",0,1362.1661999932257,1362.154999995255,True,False
15,2,2295.718066799993,circle,"(-480.0, -270.0)",0,1382.215499994345,1382.2042999963742,True,False
15,2,2295.7313466999913,circle,"(-480.0, -270.0)",0,1395.4953999927966,1395.4841999948258,True,False
15,2,2295.752632699994,circle,"(-480.0, -270.0)",0,1416.7813999956707,1416.7701999976998,True,False
15,2,2295.764070499994,circle,"(-480.0, -270.0)",0,1428.2191999955103,1428.2079999975394,True,False
15,2,2295.781513199996,circle,"(-480.0, -270.0)",0,1445.6618999975035,1445.6506999995327,True,False
15,2,2295.8007706999924,circle,"(-480.0, -270.0)",0,1464.9193999939598,1464.908199995989,True,False
15,2,2295.8141845999926,circle,"(-480.0, -270.0)",0,1478.3332999941194,1478.3220999961486,True,False
15,2,2295.8339328,circle,"(-480.0, -270.0)",0,1498.0815000017174,1498.0703000037465,True,False
15,2,2295.847863300005,circle,"(-480.0, -270.0)",0,1512.0120000065072,1512.0008000085363,True,False
15,2,2295.8676553999976,circle,"(-480.0, -270.0)",0,1531.8040999991354,1531.7929000011645,True,False
15,2,2295.880456400002,circle,"(-480.0, -270.0)",0,1544.6051000035368,1544.593900005566,True,False
15,2,2295.8972407999972,circle,"(-480.0, -270.0)",0,1561.3894999987679,1561.378300000797,True,False
15,2,2295.9172012000054,circle,"(-480.0, -270.0)",0,1581.3499000068987,1581.3387000089278,True,False
15,2,2295.933628999992,circle,"(-480.0, -270.0)",0,1597.7776999934576,1597.7664999954868,True,False
15,2,2295.9506576999993,circle,"(-480.0, -270.0)",0,1614.8064000008162,1614.7952000028454,True,False
15,2,2295.963729299998,circle,"(-480.0, -270.0)",0,1627.8779999993276,1627.8668000013568,True,False
15,2,2295.9806477999955,circle,"(-480.0, -270.0)",0,1644.7964999970281,1644.7852999990573,True,False
15,2,2296.002378399993,circle,"(-480.0, -270.0)",0,1666.5270999947097,1666.5158999967389,True,False
15,2,2296.0140892000054,circle,"(-480.0, -270.0)",0,1678.237900006934,1678.2267000089632,True,False
15,2,2296.034225700001,circle,"(-480.0, -270.0)",0,1698.374400002649,1698.3632000046782,True,False
15,2,2296.0481328000023,circle,"(-480.0, -270.0)",0,1712.2815000038827,1712.2703000059118,True,False
15,2,2296.067627299999,circle,"(-480.0, -270.0)",0,1731.7760000005364,1731.7648000025656,True,False
15,2,2296.0807379000034,circle,"(-480.0, -270.0)",0,1744.8866000049748,1744.875400007004,True,False
15,2,2296.097155399999,circle,"(-480.0, -270.0)",0,1761.304100000416,1761.292900002445,True,False
15,2,2296.1180123999948,circle,"(-480.0, -270.0)",0,1782.1610999963013,1782.1498999983305,True,False
15,2,2296.379519599999,star,"(-480.0, 270.0)",259.37480000720825,2043.6683000007179,2043.657100002747,False,True
15,3,2296.632656899994,star,"(-480.0, 270.0)",250.26029998844024,2296.805599995423,253.13729999470524,True,False
15,3,2296.654911199992,star,"(-480.0, 270.0)",0,2319.05989999359,275.3915999928722,True,False
15,3,2296.6673956000013,star,"(-480.0, 270.0)",0,2331.544300002861,287.876000002143,True,False
15,3,2296.6795114999986,star,"(-480.0, 270.0)",0,2343.6602000001585,299.99189999944065,True,False
15,3,2296.696555699993,star,"(-480.0, 270.0)",0,2360.7043999945745,317.0360999938566,True,False
15,3,2296.7159507000033,star,"(-480.0, 270.0)",0,2380.0994000048377,336.4311000041198,True,False
15,3,2296.7298184999963,star,"(-480.0, 270.0)",0,2393.96719999786,350.29889999714214,True,False
15,3,2296.7520052000036,star,"(-480.0, 270.0)",0,2416.153900005156,372.4856000044383,True,False
15,3,2296.763659999997,star,"(-480.0, 270.0)",0,2427.8086999984225,384.14039999770466,True,False
15,3,2296.7806032999943,star,"(-480.0, 270.0)",0,2444.7519999957876,401.08369999506976,True,False
15,3,2296.8004595999955,star,"(-480.0, 270.0)",0,2464.608299997053,420.93999999633525,True,False
15,3,2296.8137884000025,star,"(-480.0, 270.0)",0,2477.9371000040555,434.2688000033377,True,False
15,3,2296.833756699998,star,"(-480.0, 270.0)",0,2497.9053999995813,454.2370999988634,True,False
15,3,2296.847074999998,star,"(-480.0, 270.0)",0,2511.223699999391,467.55539999867324,True,False
15,3,2296.867035599993,star,"(-480.0, 270.0)",0,2531.184299994493,487.51599999377504,True,False
15,3,2296.8797960999946,star,"(-480.0, 270.0)",0,2543.9447999960976,500.2764999953797,True,False
15,3,2296.896175300004,star,"(-480.0, 270.0)",0,2560.324000005494,516.655700004776,True,False
15,3,2296.916623500001,star,"(-480.0, 270.0)",0,2580.7722000026843,537.1039000019664,True,False
15,3,2296.9297938999953,star,"(-480.0, 270.0)",0,2593.942599996808,550.2742999960901,True,False
15,3,2296.9497584999917,star,"(-480.0, 270.0)",0,2613.907199993264,570.2388999925461,True,False
15,3,2296.9630386999925,star,"(-480.0, 270.0)",0,2627.187399994,583.519099993282,True,False
15,3,2296.979616299999,star,"(-480.0, 270.0)",0,2643.7650000007125,600.0966999999946,True,False
15,3,2297.0021359999955,star,"(-480.0, 270.0)",0,2666.2846999970498,622.6163999963319,True,False
15,3,2297.014901799994,star,"(-480.0, 270.0)",0,2679.0504999953555,635.3821999946376,True,False
15,3,2297.0338169000024,star,"(-480.0, 270.0)",0,2697.965600003954,654.2973000032362,True,False
15,3,2297.0472089999967,star,"(-480.0, 270.0)",0,2711.3576999981888,667.6893999974709,True,False
15,3,2297.067354300001,star,"(-480.0, 270.0)",0,2731.5030000027036,687.8347000019858,True,False
15,3,2297.080070600001,star,"(-480.0, 270.0)",0,2744.2193000024417,700.5510000017239,True,False
15,3,2297.096716999993,star,"(-480.0, 270.0)",0,2760.8656999946106,717.1973999938928,True,False
15,3,2297.1168782000022,star,"(-480.0, 270.0)",0,2781.0269000037806,737.3586000030627,True,False
15,3,2297.1301447000005,star,"(-480.0, 270.0)",0,2794.2934000020614,750.6251000013435,True,False
15,3,2297.1500936999946,star,"(-480.0, 270.0)",0,2814.2423999961466,770.5740999954287,True,False
15,3,2297.1629994999967,star,"(-480.0, 270.0)",0,2827.1481999981916,783.4798999974737,True,False
15,3,2297.1792377999955,star,"(-480.0, 270.0)",0,2843.3864999969956,799.7181999962777,True,False
15,3,2297.1996241000015,star,"(-480.0, 270.0)",0,2863.772800003062,820.1045000023441,True,False
15,3,2297.214545099996,star,"(-480.0, 270.0)",0,2878.6937999975635,835.0254999968456,True,False
15,3,2297.232764600005,star,"(-480.0, 270.0)",0,2896.9133000064176,853.2450000056997,True,False
15,3,2297.2470369999937,star,"(-480.0, 270.0)",0,2911.185699995258,867.51739999454,True,False
15,3,2297.2668691,star,"(-480.0, 270.0)",0,2931.0178000014275,887.3495000007097,True,False
15,3,2297.280142699994,star,"(-480.0, 270.0)",0,2944.2913999955636,900.6230999948457,True,False
15,3,2297.2964480999944,star,"(-480.0, 270.0)",0,2960.596799995983,916.9284999952652,True,False
15,3,2297.3175211000053,star,"(-480.0, 270.0)",0,2981.6698000067845,938.0015000060666,True,False
15,3,2297.3305027000024,star,"(-480.0, 270.0)",0,2994.6514000039315,950.9831000032136,True,False
15,3,2297.350076100003,star,"(-480.0, 270.0)",0,3014.2248000047402,970.5565000040224,True,False
15,3,2297.363247999994,star,"(-480.0, 270.0)",0,3027.396699995734,983.7283999950159,True,False
15,3,2297.3797301000013,star,"(-480.0, 270.0)",0,3043.878800002858,1000.2105000021402,True,False
15,3,2297.399405899996,star,"(-480.0, 270.0)",0,3063.5545999975875,1019.8862999968696,True,False
15,3,2297.412659399997,star,"(-480.0, 270.0)",0,3076.8080999987433,1033.1397999980254,True,False
15,3,2297.432420900004,star,"(-480.0, 270.0)",0,3096.5696000057505,1052.9013000050327,True,False
15,3,2297.4458241999964,star,"(-480.0, 270.0)",0,3109.972899997956,1066.3045999972383,True,False
15,3,2297.466301399996,star,"(-480.0, 270.0)",0,3130.450099997688,1086.7817999969702,True,False
15,3,2297.479454100001,star,"(-480.0, 270.0)",0,3143.6028000025544,1099.9345000018366,True,False
15,3,2297.497201499995,star,"(-480.0, 270.0)",0,3161.3501999963773,1117.6818999956595,True,False
15,3,2297.5166904999933,star,"(-480.0, 270.0)",0,3180.839199994807,1137.1708999940893,True,False
15,3,2297.5300669999997,star,"(-480.0, 270.0)",0,3194.215700001223,1150.5474000005051,True,False
15,3,2297.549412499997,star,"(-480.0, 270.0)",0,3213.5611999983666,1169.8928999976488,True,False
15,3,2297.5625922000036,star,"(-480.0, 270.0)",0,3226.7409000050975,1183.0726000043796,True,False
15,3,2297.579621800003,star,"(-480.0, 270.0)",0,3243.770500004757,1200.1022000040393,True,False
15,3,2297.600326400003,star,"(-480.0, 270.0)",0,3264.475100004347,1220.8068000036292,True,False
15,3,2297.6130389000027,star,"(-480.0, 270.0)",0,3277.187600004254,1233.519300003536,True,False
15,3,2297.6333464000054,star,"(-480.0, 270.0)",0,3297.495100006927,1253.826800006209,True,False
15,3,2297.6460678000003,star,"(-480.0, 270.0)",0,3310.216500001843,1266.5482000011252,True,False
15,3,2297.6662579999975,star,"(-480.0, 270.0)",0,3330.4066999990027,1286.7383999982849,True,False
15,3,2297.679464300003,star,"(-480.0, 270.0)",0,3343.6130000045523,1299.9447000038344,True,False
15,3,2297.696217299992,star,"(-480.0, 270.0)",0,3360.365999993519,1316.697699992801,True,False
15,3,2297.7163342999993,star,"(-480.0, 270.0)",0,3380.4830000008224,1336.8147000001045,True,False
15,3,2297.729560299995,star,"(-480.0, 270.0)",0,3393.7089999963064,1350.0406999955885,True,False
15,3,2297.7516524999955,star,"(-480.0, 270.0)",0,3415.8011999970768,1372.132899996359,True,False
15,3,2297.763342099992,star,"(-480.0, 270.0)",0,3427.490799993393,1383.8224999926751,True,False
15,3,2297.7797887999914,star,"(-480.0, 270.0)",0,3443.9374999928987,1400.2691999921808,True,False
15,3,2297.800344000003,star,"(-480.0, 270.0)",0,3464.4927000044845,1420.8244000037666,True,False
15,3,2297.8146128999942,star,"(-480.0, 270.0)",0,3478.761599995778,1435.09329999506,True,False
15,3,2297.8351087000046,star,"(-480.0, 270.0)",0,3499.2574000061722,1455.5891000054544,True,False
15,3,2297.8455194999988,star,"(-480.0, 270.0)",0,3509.6682000003057,1465.9998999995878,True,False
15,3,2297.8660619,star,"(-480.0, 270.0)",0,3530.2106000017375,1486.5423000010196,True,False
15,3,2297.8792317000043,star,"(-480.0, 270.0)",0,3543.3804000058444,1499.7121000051266,True,False
15,3,2297.896166199993,star,"(-480.0, 270.0)",0,3560.3148999944096,1516.6465999936918,True,False
15,3,2297.915962800005,star,"(-480.0, 270.0)",0,3580.111500006751,1536.4432000060333,True,False
15,3,2297.9294456999924,star,"(-480.0, 270.0)",0,3593.59439999389,1549.926099993172,True,False
15,3,2297.949464999998,star,"(-480.0, 270.0)",0,3613.613699999405,1569.9453999986872,True,False
15,3,2297.9632905000035,star,"(-480.0, 270.0)",0,3627.4392000050284,1583.7709000043105,True,False
15,3,2297.979292200005,star,"(-480.0, 270.0)",0,3643.4409000066807,1599.7726000059629,True,False
15,3,2298.001284400001,star,"(-480.0, 270.0)",0,3665.4331000027014,1621.7648000019835,True,False
15,3,2298.013689799991,star,"(-480.0, 270.0)",0,3677.838499992504,1634.170199991786,True,False
15,3,2298.033637100001,star,"(-480.0, 270.0)",0,3697.785800002748,1654.1175000020303,True,False
15,3,2298.0465734000027,star,"(-480.0, 270.0)",0,3710.7221000042045,1667.0538000034867,True,False
15,3,2298.066881299994,star,"(-480.0, 270.0)",0,3731.0299999953713,1687.3616999946535,True,False
15,3,2298.079578799996,star,"(-480.0, 270.0)",0,3743.727499997476,1700.0591999967583,True,False
15,3,2298.096178599997,star,"(-480.0, 270.0)",0,3760.3272999986075,1716.6589999978896,True,False
15,3,2298.1166894999915,star,"(-480.0, 270.0)",0,3780.8381999930134,1737.1698999922955,True,False
15,3,2298.129774000001,star,"(-480.0, 270.0)",0,3793.9227000024403,1750.2544000017224,True,False
15,3,2298.1492494999984,star,"(-480.0, 270.0)",0,3813.398199999938,1769.72989999922,True,False
15,3,2298.162677699991,star,"(-480.0, 270.0)",0,3826.8263999925693,1783.1580999918515,True,False
15,3,2298.179355100001,star,"(-480.0, 270.0)",0,3843.503800002509,1799.835500001791,True,False
15,3,2298.8655688,t,"(480.0, 270.0)",265.8450000017183,4529.717500001425,2486.049200000707,False,True
15,4,2301.295031200003,star,"(-480.0, 270.0)",262.91889999993145,6959.1799000045285,2429.4624000031035,False,True
16,1,2305.4140938999917,circle,"(-480.0, -270.0)",0,0.01720000000204891,0.01720000000204891,False,True
16,2,2305.6810019999975,star,"(-480.0, 270.0)",264.5838000025833,266.9253000058234,266.9081000058213,True,False
16,2,2305.695924300002,star,"(-480.0, 270.0)",0,281.8476000102237,281.83040001022164,True,False
16,2,2305.7120724999986,star,"(-480.0, 270.0)",0,297.99580000690185,297.9786000068998,True,False
16,2,2305.7321321999916,star,"(-480.0, 270.0)",0,318.05549999990035,318.0382999998983,True,False
16,2,2305.743814100002,star,"(-480.0, 270.0)",0,329.7374000103446,329.7202000103425,True,False
16,2,2305.763444199998,star,"(-480.0, 270.0)",0,349.36750000633765,349.3503000063356,True,False
16,2,2305.7762502999976,star,"(-480.0, 270.0)",0,362.17360000591725,362.1564000059152,True,False
16,2,2305.793615699993,star,"(-480.0, 270.0)",0,379.53900000138674,379.5218000013847,True,False
16,2,2305.814137900001,star,"(-480.0, 270.0)",0,400.06120000907686,400.0440000090748,True,False
16,2,2305.8271048000024,star,"(-480.0, 270.0)",0,413.0281000107061,413.01090001070406,True,False
16,2,2305.847015799998,star,"(-480.0, 270.0)",0,432.93910000647884,432.9219000064768,True,False
16,2,2305.8601055000036,star,"(-480.0, 270.0)",0,446.0288000118453,446.01160001184326,True,False
16,2,2305.877077900004,star,"(-480.0, 270.0)",0,463.00120001251344,462.9840000125114,True,False
16,2,2305.8972801999917,star,"(-480.0, 270.0)",0,483.20349999994505,483.186299999943,True,False
16,2,2305.912086600001,star,"(-480.0, 270.0)",0,498.0099000094924,497.99270000949036,True,False
16,2,2305.9303878999926,star,"(-480.0, 270.0)",0,516.3112000009278,516.2940000009257,True,False
16,2,2305.943480300004,star,"(-480.0, 270.0)",0,529.4036000123015,529.3864000122994,True,False
16,2,2305.9633071999997,star,"(-480.0, 270.0)",0,549.2305000079796,549.2133000079775,True,False
16,2,2305.977731699997,star,"(-480.0, 270.0)",0,563.655000005383,563.637800005381,True,False
16,2,2305.993893199993,star,"(-480.0, 270.0)",0,579.8165000014706,579.7993000014685,True,False
16,2,2306.0129721999983,star,"(-480.0, 270.0)",0,598.8955000066198,598.8783000066178,True,False
16,2,2306.015260100001,circle,"(-480.0, -270.0)",269.14770000439603,601.1834000091767,601.1662000091746,True,False
16,2,2306.029636399995,circle,"(-480.0, -270.0)",0,615.5597000033595,615.5425000033574,True,False
16,2,2306.046606499993,circle,"(-480.0, -270.0)",0,632.5298000010662,632.5126000010641,True,False
16,2,2306.060105299999,circle,"(-480.0, -270.0)",0,646.028600007412,646.01140000741,True,False
16,2,2306.0761346999934,circle,"(-480.0, -270.0)",0,662.0580000017071,662.0408000017051,True,False
16,2,2306.097137799996,circle,"(-480.0, -270.0)",0,683.0611000041245,683.0439000041224,True,False
16,2,2306.1117715,circle,"(-480.0, -270.0)",0,697.6948000083212,697.6776000083191,True,False
16,2,2306.1300740000006,circle,"(-480.0, -270.0)",0,715.997300008894,715.9801000088919,True,False
16,2,2306.143109800003,circle,"(-480.0, -270.0)",0,729.0331000112928,729.0159000112908,True,False
16,2,2306.163896500002,circle,"(-480.0, -270.0)",0,749.8198000103002,749.8026000102982,True,False
16,2,2306.1769378000026,circle,"(-480.0, -270.0)",0,762.8611000109231,762.8439000109211,True,False
16,2,2306.1932257000008,circle,"(-480.0, -270.0)",0,779.1490000090562,779.1318000090541,True,False
16,2,2306.213203899999,circle,"(-480.0, -270.0)",0,799.1272000072058,799.1100000072038,True,False
16,2,2306.228516499992,circle,"(-480.0, -270.0)",0,814.4398000004003,814.4226000003982,True,False
16,2,2306.246699700001,circle,"(-480.0, -270.0)",0,832.6230000093346,832.6058000093326,True,False
16,2,2306.2601915999985,circle,"(-480.0, -270.0)",0,846.1149000067962,846.0977000067942,True,False
16,2,2306.2764623999974,circle,"(-480.0, -270.0)",0,862.3857000056887,862.3685000056867,True,False
16,2,2306.2970606000017,circle,"(-480.0, -270.0)",0,882.9839000100037,882.9667000100017,True,False
16,2,2306.310970899998,circle,"(-480.0, -270.0)",0,896.8942000064999,896.8770000064978,True,False
16,2,2306.330426100001,circle,"(-480.0, -270.0)",0,916.3494000094943,916.3322000094922,True,False
16,2,2306.343230700004,circle,"(-480.0, -270.0)",0,929.154000012204,929.136800012202,True,False
16,2,2306.363708100005,circle,"(-480.0, -270.0)",0,949.6314000134589,949.6142000134569,True,False
16,2,2306.3762594,circle,"(-480.0, -270.0)",0,962.1827000082703,962.1655000082683,True,False
16,2,2306.393173100005,circle,"(-480.0, -270.0)",0,979.0964000130771,979.079200013075,True,False
16,2,2306.413411699992,circle,"(-480.0, -270.0)",0,999.3350000004284,999.3178000004264,True,False
16,2,2306.426861999993,circle,"(-480.0, -270.0)",0,1012.7853000012692,1012.7681000012672,True,False
16,2,2306.447100000005,circle,"(-480.0, -270.0)",0,1033.0233000131557,1033.0061000131536,True,False
16,2,2306.4600247999915,circle,"(-480.0, -270.0)",0,1045.948099999805,1045.930899999803,True,False
16,2,2306.4783315999957,circle,"(-480.0, -270.0)",0,1064.2549000040162,1064.2377000040142,True,False
16,2,2306.497404099995,circle,"(-480.0, -270.0)",0,1083.327400003327,1083.310200003325,True,False
16,2,2306.5120422000036,circle,"(-480.0, -270.0)",0,1097.9655000119237,1097.9483000119217,True,False
16,2,2306.5304534000024,circle,"(-480.0, -270.0)",0,1116.3767000107327,1116.3595000107307,True,False
16,2,2306.543600399993,circle,"(-480.0, -270.0)",0,1129.5237000013003,1129.5065000012983,True,False
16,2,2306.563442300001,circle,"(-480.0, -270.0)",0,1149.3656000093324,1149.3484000093304,True,False
16,2,2306.5767213999934,circle,"(-480.0, -270.0)",0,1162.6447000016924,1162.6275000016904,True,False
16,2,2306.593386499997,circle,"(-480.0, -270.0)",0,1179.309800005285,1179.292600005283,True,False
16,2,2306.6132195999962,circle,"(-480.0, -270.0)",0,1199.1429000045173,1199.1257000045152,True,False
16,2,2306.6266655999934,circle,"(-480.0, -270.0)",0,1212.5889000017196,1212.5717000017175,True,False
16,2,2306.6467283999955,circle,"(-480.0, -270.0)",0,1232.651700003771,1232.634500003769,True,False
16,2,2306.660118,circle,"(-480.0, -270.0)",0,1246.0413000080734,1246.0241000080714,True,False
16,2,2306.6764952999947,circle,"(-480.0, -270.0)",0,1262.4186000030022,1262.4014000030002,True,False
16,2,2306.6962486999983,circle,"(-480.0, -270.0)",0,1282.1720000065397,1282.1548000065377,True,False
16,2,2306.7117763999995,circle,"(-480.0, -270.0)",0,1297.6997000077972,1297.6825000077952,True,False
16,2,2306.732044000004,circle,"(-480.0, -270.0)",0,1317.967300012242,1317.95010001224,True,False
16,2,2306.7431779000035,circle,"(-480.0, -270.0)",0,1329.1012000117917,1329.0840000117896,True,False
16,2,2306.763550200005,circle,"(-480.0, -270.0)",0,1349.4735000131186,1349.4563000131166,True,False
16,2,2306.7759723000054,circle,"(-480.0, -270.0)",0,1361.8956000136677,1361.8784000136657,True,False
16,2,2306.7932992999995,circle,"(-480.0, -270.0)",0,1379.222600007779,1379.205400007777,True,False
16,2,2306.8136277000012,circle,"(-480.0, -270.0)",0,1399.5510000095237,1399.5338000095217,True,False
16,2,2306.826891100005,circle,"(-480.0, -270.0)",0,1412.8144000133034,1412.7972000133013,True,False
16,2,2306.8467651999963,circle,"(-480.0, -270.0)",0,1432.6885000045877,1432.6713000045856,True,False
16,2,2306.860011800003,circle,"(-480.0, -270.0)",0,1445.9351000114111,1445.917900011409,True,False
16,2,2306.8760866999946,circle,"(-480.0, -270.0)",0,1462.0100000029197,1461.9928000029176,True,False
16,2,2306.8966610999923,circle,"(-480.0, -270.0)",0,1482.5844000006327,1482.5672000006307,True,False
16,2,2306.911697699994,circle,"(-480.0, -270.0)",0,1497.6210000022547,1497.6038000022527,True,False
16,2,2306.9301266999973,circle,"(-480.0, -270.0)",0,1516.0500000056345,1516.0328000056325,True,False
16,2,2306.9436706999986,circle,"(-480.0, -270.0)",0,1529.5940000069095,1529.5768000069074,True,False
16,2,2306.963048999998,circle,"(-480.0, -270.0)",0,1548.972300006426,1548.955100006424,True,False
16,2,2306.9785214000003,circle,"(-480.0, -270.0)",0,1564.4447000086075,1564.4275000086054,True,False
16,2,2306.9932031999924,circle,"(-480.0, -270.0)",0,1579.1265000007115,1579.1093000007095,True,False
16,2,2307.013567400005,circle,"(-480.0, -270.0)",0,1599.4907000131207,1599.4735000131186,True,False
16,2,2307.026659299998,circle,"(-480.0, -270.0)",0,1612.5826000061352,1612.5654000061331,True,False
16,2,2307.046947499999,circle,"(-480.0, -270.0)",0,1632.8708000073675,1632.8536000073655,True,False
16,2,2307.0596955999936,circle,"(-480.0, -270.0)",0,1645.618900001864,1645.601700001862,True,False
16,2,2307.076533700005,circle,"(-480.0, -270.0)",0,1662.4570000130916,1662.4398000130896,True,False
16,2,2307.096728100005,circle,"(-480.0, -270.0)",0,1682.6514000131283,1682.6342000131262,True,False
16,2,2307.112695299991,circle,"(-480.0, -270.0)",0,1698.6185999994632,1698.6013999994611,True,False
16,2,2307.1296936,circle,"(-480.0, -270.0)",0,1715.6169000081718,1715.5997000081697,True,False
16,2,2307.142924700005,circle,"(-480.0, -270.0)",0,1728.848000013386,1728.8308000133839,True,False
16,2,2307.1630776999955,circle,"(-480.0, -270.0)",0,1749.0010000037728,1748.9838000037707,True,False
16,2,2307.176159900002,circle,"(-480.0, -270.0)",0,1762.0832000102382,1762.0660000102362,True,False
16,2,2307.1929655999993,circle,"(-480.0, -270.0)",0,1778.888900007587,1778.8717000075849,True,False
16,2,2307.625884199995,star,"(-480.0, 270.0)",262.7780999901006,2211.807500003488,2211.7903000034858,False,True
16,3,2307.896377099998,star,"(-480.0, 270.0)",267.2400000010384,2482.300400006352,270.4929000028642,True,False
16,3,2307.912277399999,star,"(-480.0, 270.0)",0,2498.200700007146,286.3932000036584,True,False
16,3,2307.9322812000028,star,"(-480.0, 270.0)",0,2518.204500011052,306.3970000075642,True,False
16,3,2307.9432932000054,star,"(-480.0, 270.0)",0,2529.2165000137175,317.40900001022965,True,False
16,3,2307.962661800004,star,"(-480.0, 270.0)",0,2548.585100012133,336.7776000086451,True,False
16,3,2307.9780126999976,star,"(-480.0, 270.0)",0,2563.936000005924,352.12850000243634,True,False
16,3,2307.993270399995,star,"(-480.0, 270.0)",0,2579.1937000030885,367.38619999960065,True,False
16,3,2308.013536700004,star,"(-480.0, 270.0)",0,2599.4600000121864,387.65250000869855,True,False
16,3,2308.0267927999957,star,"(-480.0, 270.0)",0,2612.716100004036,400.9086000005482,True,False
16,3,2308.046837200003,star,"(-480.0, 270.0)",0,2632.7605000115,420.95300000801217,True,False
16,3,2308.059916600003,star,"(-480.0, 270.0)",0,2645.8399000111967,434.03240000770893,True,False
16,3,2308.076354799996,star,"(-480.0, 270.0)",0,2662.278100004187,450.47060000069905,True,False
16,3,2308.096461699999,star,"(-480.0, 270.0)",0,2682.3850000073435,470.5775000038557,True,False
16,3,2308.1107239999983,star,"(-480.0, 270.0)",0,2696.647300006589,484.8398000031011,True,False
16,3,2308.1292735000025,star,"(-480.0, 270.0)",0,2715.1968000107445,503.3893000072567,True,False
16,3,2308.1424150999956,star,"(-480.0, 270.0)",0,2728.3384000038495,516.5309000003617,True,False
16,3,2308.1629307999974,star,"(-480.0, 270.0)",0,2748.854100005701,537.0466000022134,True,False
16,3,2308.1760476999916,star,"(-480.0, 270.0)",0,2761.970999999903,550.1634999964153,True,False
16,3,2308.1932175999973,star,"(-480.0, 270.0)",0,2779.1409000055864,567.3334000020986,True,False
16,3,2308.212902200001,star,"(-480.0, 270.0)",0,2798.825500009116,587.018000005628,True,False
16,3,2308.2270234000025,star,"(-480.0, 270.0)",0,2812.946700010798,601.1392000073101,True,False
16,3,2308.2467725000024,star,"(-480.0, 270.0)",0,2832.695800010697,620.8883000072092,True,False
16,3,2308.259270900002,star,"(-480.0, 270.0)",0,2845.1942000101553,633.3867000066675,True,False
16,3,2308.2763750000013,star,"(-480.0, 270.0)",0,2862.29830000957,650.4908000060823,True,False
16,3,2308.2967018000054,star,"(-480.0, 270.0)",0,2882.6251000136836,670.8176000101957,True,False
16,3,2308.3121018999955,star,"(-480.0, 270.0)",0,2898.025200003758,686.2177000002703,True,False
16,3,2308.3298709999945,star,"(-480.0, 270.0)",0,2915.7943000027444,703.9867999992566,True,False
16,3,2308.343267499993,star,"(-480.0, 270.0)",0,2929.190800001379,717.3832999978913,True,False
16,3,2308.3624924000032,star,"(-480.0, 270.0)",0,2948.4157000115374,736.6082000080496,True,False
16,3,2308.375786299992,star,"(-480.0, 270.0)",0,2961.7096000001766,749.9020999966888,True,False
16,3,2308.392495799999,star,"(-480.0, 270.0)",0,2978.4191000071587,766.6116000036709,True,False
16,3,2308.4128218999977,star,"(-480.0, 270.0)",0,2998.745200005942,786.9377000024542,True,False
16,3,2308.426328500005,star,"(-480.0, 270.0)",0,3012.2518000134733,800.4443000099855,True,False
16,3,2308.4462500999944,star,"(-480.0, 270.0)",0,3032.173400002648,820.3658999991603,True,False
16,3,2308.459569999992,star,"(-480.0, 270.0)",0,3045.493300000089,833.6857999966014,True,False
16,3,2308.476860099996,star,"(-480.0, 270.0)",0,3062.783400004264,850.9759000007762,True,False
16,3,2308.4967393999978,star,"(-480.0, 270.0)",0,3082.66270000604,870.855200002552,True,False
16,3,2308.5112673999975,star,"(-480.0, 270.0)",0,3097.19070000574,885.3832000022521,True,False
16,3,2308.5297957000002,star,"(-480.0, 270.0)",0,3115.7190000085393,903.9115000050515,True,False
16,3,2308.5428163000033,star,"(-480.0, 270.0)",0,3128.739600011613,916.9321000081254,True,False
16,3,2308.5630042999983,star,"(-480.0, 270.0)",0,3148.927600006573,937.1201000030851,True,False
16,3,2308.576210200001,star,"(-480.0, 270.0)",0,3162.1335000090767,950.3260000055889,True,False
16,3,2308.592908099992,star,"(-480.0, 270.0)",0,3178.8314000004902,967.0238999970024,True,False
16,3,2308.6131599999935,star,"(-480.0, 270.0)",0,3199.083300001803,987.275799998315,True,False
16,3,2308.6257439000037,star,"(-480.0, 270.0)",0,3211.667200012016,999.8597000085283,True,False
16,3,2308.645665899996,star,"(-480.0, 270.0)",0,3231.589200004237,1019.781700000749,True,False
16,3,2308.6590651000006,star,"(-480.0, 270.0)",0,3244.9884000088787,1033.1809000053909,True,False
16,3,2308.6756561999937,star,"(-480.0, 270.0)",0,3261.5795000019716,1049.7719999984838,True,False
16,3,2308.6955716999946,star,"(-480.0, 270.0)",0,3281.4950000029057,1069.687499999418,True,False
16,3,2308.711829299995,star,"(-480.0, 270.0)",0,3297.7526000031503,1085.9450999996625,True,False
16,3,2308.731356899996,star,"(-480.0, 270.0)",0,3317.280200004461,1105.4727000009734,True,False
16,3,2308.7427343000018,star,"(-480.0, 270.0)",0,3328.6576000100467,1116.850100006559,True,False
16,3,2308.763082099991,star,"(-480.0, 270.0)",0,3349.0053999994416,1137.1978999959538,True,False
16,3,2308.7760718999925,star,"(-480.0, 270.0)",0,3361.9952000008198,1150.187699997332,True,False
16,3,2308.792605900002,star,"(-480.0, 270.0)",0,3378.5292000102345,1166.7217000067467,True,False
16,3,2308.812880700003,star,"(-480.0, 270.0)",0,3398.804000011296,1186.9965000078082,True,False
16,3,2308.8261641999998,star,"(-480.0, 270.0)",0,3412.087500008056,1200.2800000045681,True,False
16,3,2308.8465753999917,star,"(-480.0, 270.0)",0,3432.4986999999965,1220.6911999965087,True,False
16,3,2308.8594919000025,star,"(-480.0, 270.0)",0,3445.415200010757,1233.6077000072692,True,False
16,3,2308.8755888000014,star,"(-480.0, 270.0)",0,3461.5121000097133,1249.7046000062255,True,False
16,3,2308.8956897000025,star,"(-480.0, 270.0)",0,3481.6130000108387,1269.805500007351,True,False
16,3,2308.9113832000003,star,"(-480.0, 270.0)",0,3497.3065000085626,1285.4990000050748,True,False
16,3,2308.9288745999947,star,"(-480.0, 270.0)",0,3514.797900003032,1302.990399999544,True,False
16,3,2308.942274000001,star,"(-480.0, 270.0)",0,3528.1973000091966,1316.3898000057088,True,False
16,3,2308.9621684000012,star,"(-480.0, 270.0)",0,3548.091700009536,1336.2842000060482,True,False
16,3,2308.977436699992,star,"(-480.0, 270.0)",0,3563.3600000001024,1351.5524999966146,True,False
16,3,2308.992837400001,star,"(-480.0, 270.0)",0,3578.7607000092976,1366.9532000058098,True,False
16,3,2309.0124495000055,star,"(-480.0, 270.0)",0,3598.372800013749,1386.5653000102611,True,False
16,3,2309.0256897999934,star,"(-480.0, 270.0)",0,3611.613100001705,1399.805599998217,True,False
16,3,2309.0454183999973,star,"(-480.0, 270.0)",0,3631.341700005578,1419.53420000209,True,False
16,3,2309.058970500002,star,"(-480.0, 270.0)",0,3644.8938000103226,1433.0863000068348,True,False
16,3,2309.075587600004,star,"(-480.0, 270.0)",0,3661.5109000122175,1449.7034000087297,True,False
16,3,2309.0955149999936,star,"(-480.0, 270.0)",0,3681.4383000019006,1469.6307999984128,True,False
16,3,2309.1112967999943,star,"(-480.0, 270.0)",0,3697.220100002596,1485.4125999991084,True,False
16,3,2309.128893400004,star,"(-480.0, 270.0)",0,3714.8167000123067,1503.0092000088189,True,False
16,3,2309.142243399998,star,"(-480.0, 270.0)",0,3728.1667000061134,1516.3592000026256,True,False
16,3,2309.1621807000047,star,"(-480.0, 270.0)",0,3748.1040000129724,1536.2965000094846,True,False
16,3,2309.175474699994,star,"(-480.0, 270.0)",0,3761.398000002373,1549.5904999988852,True,False
16,3,2309.1920236000005,star,"(-480.0, 270.0)",0,3777.9469000088284,1566.1394000053406,True,False
16,3,2309.2122570999927,star,"(-480.0, 270.0)",0,3798.1804000010015,1586.3728999975137,True,False
16,3,2309.225692799999,star,"(-480.0, 270.0)",0,3811.616100007086,1599.8086000035983,True,False
16,3,2309.2458074000024,star,"(-480.0, 270.0)",0,3831.7307000106666,1619.9232000071788,True,False
16,3,2309.259514199992,star,"(-480.0, 270.0)",0,3845.4375000001164,1633.6299999966286,True,False
16,3,2309.2756993999938,star,"(-480.0, 270.0)",0,3861.6227000020444,1649.8151999985566,True,False
16,3,2309.295262300002,star,"(-480.0, 270.0)",0,3881.1856000102125,1669.3781000067247,True,False
16,3,2309.308924900004,star,"(-480.0, 270.0)",0,3894.8482000123477,1683.0407000088599,True,False
16,3,2309.328541900002,star,"(-480.0, 270.0)",0,3914.4652000104543,1702.6577000069665,True,False
16,3,2309.3420546999987,star,"(-480.0, 270.0)",0,3927.9780000069877,1716.1705000035,True,False
16,3,2309.3620926000003,star,"(-480.0, 270.0)",0,3948.0159000086132,1736.2084000051254,True,False
16,3,2309.3755975999957,star,"(-480.0, 270.0)",0,3961.5209000039613,1749.7134000004735,True,False
16,3,2309.392187000005,star,"(-480.0, 270.0)",0,3978.1103000132134,1766.3028000097256,True,False
16,3,2309.412461999993,star,"(-480.0, 270.0)",0,3998.385300001246,1786.5777999977581,True,False
16,3,2310.049453799991,t,"(480.0, 270.0)",258.3103999932064,4635.3770999994595,2423.5695999959717,False,True
16,4,2311.8576513000007,cross,"(480.0, -270.0)",1178.1710000068415,6443.574600009015,1808.1975000095554,False,True
