trial_num,selection_num,timestamp,shape,position,fixation_duration_ms,rt_from_trial_start_ms,rt_from_previous_selection_ms,queued_selection,was_executed
13,1,208.6119660999393,circle,"(-480.0, -270.0)",0,0.029999995604157448,0.029999995604157448,False,True
13,2,208.8749018999515,circle,"(-480.0, -270.0)",251.6693000216037,262.9658000078052,262.93580001220107,True,False
13,2,208.89327789994422,circle,"(-480.0, -270.0)",0,281.34180000051856,281.3118000049144,True,False
13,2,208.9077809000155,circle,"(-480.0, -270.0)",0,295.8448000717908,295.81480007618666,True,False
13,2,208.92399309994653,circle,"(-480.0, -270.0)",0,312.05700000282377,312.0270000072196,True,False
13,2,208.9413443999365,circle,"(-480.0, -270.0)",0,329.4082999927923,329.37829999718815,True,False
13,2,208.957269800012,circle,"(-480.0, -270.0)",0,345.333700068295,345.30370007269084,True,False
13,2,208.97463740000967,circle,"(-480.0, -270.0)",0,362.70130006596446,362.6713000703603,True,False
13,2,208.99042309995275,circle,"(-480.0, -270.0)",0,378.487000009045,378.45700001344085,True,False
13,2,209.0086685999995,circle,"(-480.0, -270.0)",0,396.73250005580485,396.7025000602007,True,False
13,2,209.0238072000211,circle,"(-480.0, -270.0)",0,411.8711000774056,411.8411000818014,True,False
13,2,209.04419749998488,circle,"(-480.0, -270.0)",0,432.2614000411704,432.23140004556626,True,False
13,2,209.05738300003577,circle,"(-480.0, -270.0)",0,445.44690009206533,445.4169000964612,True,False
13,2,209.0760300999973,circle,"(-480.0, -270.0)",0,464.094000053592,464.06400005798787,True,False
13,2,209.0913256999338,circle,"(-480.0, -270.0)",0,479.38959999009967,479.3595999944955,True,False
13,2,209.10882790002506,circle,"(-480.0, -270.0)",0,496.89180008135736,496.8618000857532,True,False
13,2,209.1239875999745,circle,"(-480.0, -270.0)",0,512.0515000307932,512.0215000351891,True,False
13,2,209.14152940001804,circle,"(-480.0, -270.0)",0,529.5933000743389,529.5633000787348,True,False
13,2,209.15727580001112,circle,"(-480.0, -270.0)",0,545.3397000674158,545.3097000718117,True,False
13,2,209.17502019996755,circle,"(-480.0, -270.0)",0,563.0841000238433,563.0541000282392,True,False
13,2,209.19072830001824,circle,"(-480.0, -270.0)",0,578.7922000745311,578.762200078927,True,False
13,2,209.20811809995212,circle,"(-480.0, -270.0)",0,596.1820000084117,596.1520000128075,True,False
13,2,209.22404929995537,circle,"(-480.0, -270.0)",0,612.1132000116631,612.083200016059,True,False
13,2,209.24193689995445,circle,"(-480.0, -270.0)",0,630.0008000107482,629.970800015144,True,False
13,2,209.25749719992746,circle,"(-480.0, -270.0)",0,645.5610999837518,645.5310999881476,True,False
13,2,209.27596569992602,circle,"(-480.0, -270.0)",0,664.0295999823138,663.9995999867097,True,False
13,2,209.29072859999724,circle,"(-480.0, -270.0)",0,678.7925000535324,678.7625000579283,True,False
13,2,209.31145959999412,circle,"(-480.0, -270.0)",0,699.5235000504181,699.4935000548139,True,False
13,2,209.32382359995972,circle,"(-480.0, -270.0)",0,711.8875000160187,711.8575000204146,True,False
13,2,209.34378500003368,circle,"(-480.0, -270.0)",0,731.8489000899717,731.8189000943676,True,False
13,2,209.35748639993835,circle,"(-480.0, -270.0)",0,745.5502999946475,745.5202999990433,True,False
13,2,209.37501860002521,circle,"(-480.0, -270.0)",0,763.0825000815094,763.0525000859052,True,False
13,2,209.39084509992972,circle,"(-480.0, -270.0)",0,778.9089999860153,778.8789999904111,True,False
13,2,209.40804050001316,circle,"(-480.0, -270.0)",0,796.1044000694528,796.0744000738487,True,False
13,2,209.42389610002283,circle,"(-480.0, -270.0)",0,811.9600000791252,811.930000083521,True,False
13,2,209.44192350003868,circle,"(-480.0, -270.0)",0,829.9874000949785,829.9574000993744,True,False
13,2,209.45761849998962,circle,"(-480.0, -270.0)",0,845.6824000459164,845.6524000503123,True,False
13,2,209.4755766999442,circle,"(-480.0, -270.0)",0,863.6406000005081,863.610600004904,True,False
13,2,209.49216399993747,circle,"(-480.0, -270.0)",0,880.2278999937698,880.1978999981657,True,False
13,2,209.50807219999842,circle,"(-480.0, -270.0)",0,896.1361000547186,896.1061000591144,True,False
13,2,209.52598499995656,circle,"(-480.0, -270.0)",0,914.0489000128582,914.018900017254,True,False
13,2,209.54154879995622,circle,"(-480.0, -270.0)",0,929.6127000125125,929.5827000169083,True,False
13,2,209.5599219999276,circle,"(-480.0, -270.0)",0,947.9858999839053,947.9558999883011,True,False
13,2,209.57515519997105,circle,"(-480.0, -270.0)",0,963.2191000273451,963.189100031741,True,False
13,2,209.59089949994814,circle,"(-480.0, -270.0)",0,978.9634000044316,978.9334000088274,True,False
13,2,209.60804610000923,circle,"(-480.0, -270.0)",0,996.1100000655279,996.0800000699237,True,False
13,2,209.62386870000046,circle,"(-480.0, -270.0)",0,1011.9326000567526,1011.9026000611484,True,False
13,2,209.64129409997258,circle,"(-480.0, -270.0)",0,1029.3580000288785,1029.3280000332743,True,False
13,2,209.65720529993996,circle,"(-480.0, -270.0)",0,1045.2691999962553,1045.2392000006512,True,False
13,2,209.67468039994128,circle,"(-480.0, -270.0)",0,1062.7442999975756,1062.7143000019714,True,False
13,2,209.69004709995352,circle,"(-480.0, -270.0)",0,1078.1110000098124,1078.0810000142083,True,False
13,2,209.7084612000035,circle,"(-480.0, -270.0)",0,1096.5251000598073,1096.4951000642031,True,False
13,2,209.7236125000054,circle,"(-480.0, -270.0)",0,1111.6764000616968,1111.6464000660926,True,False
13,2,209.74137679999694,circle,"(-480.0, -270.0)",0,1129.4407000532374,1129.4107000576332,True,False
13,2,209.7600003000116,circle,"(-480.0, -270.0)",0,1148.0642000678927,1148.0342000722885,True,False
13,2,209.77526449994184,circle,"(-480.0, -270.0)",0,1163.3283999981359,1163.2984000025317,True,False
13,2,209.7935320000397,circle,"(-480.0, -270.0)",0,1181.5959000959992,1181.565900100395,True,False
13,2,209.8084894999629,circle,"(-480.0, -270.0)",0,1196.5534000191838,1196.5234000235796,True,False
13,2,209.82374979997985,circle,"(-480.0, -270.0)",0,1211.8137000361457,1211.7837000405416,True,False
13,2,209.84132869995665,circle,"(-480.0, -270.0)",0,1229.3926000129431,1229.362600017339,True,False
13,2,209.8571700999746,circle,"(-480.0, -270.0)",0,1245.234000030905,1245.2040000353009,True,False
13,2,209.87435659999028,circle,"(-480.0, -270.0)",0,1262.4205000465736,1262.3905000509694,True,False
13,2,209.8904469999252,circle,"(-480.0, -270.0)",0,1278.5108999814838,1278.4808999858797,True,False
13,2,209.90799740003422,circle,"(-480.0, -270.0)",0,1296.0613000905141,1296.03130009491,True,False
13,2,209.92353509995155,circle,"(-480.0, -270.0)",0,1311.5990000078455,1311.5690000122413,True,False
13,2,209.94357030000538,circle,"(-480.0, -270.0)",0,1331.6342000616714,1331.6042000660673,True,False
13,2,209.9570569000207,circle,"(-480.0, -270.0)",0,1345.1208000769839,1345.0908000813797,True,False
13,2,209.97634369996376,circle,"(-480.0, -270.0)",0,1364.4076000200585,1364.3776000244543,True,False
13,2,209.99034439993557,circle,"(-480.0, -270.0)",0,1378.408299991861,1378.3782999962568,True,False
13,2,210.00773940002546,circle,"(-480.0, -270.0)",0,1395.8033000817522,1395.773300086148,True,False
13,2,210.02349149994552,circle,"(-480.0, -270.0)",0,1411.5554000018165,1411.5254000062123,True,False
13,2,210.04090269992594,circle,"(-480.0, -270.0)",0,1428.9665999822319,1428.9365999866277,True,False
13,2,210.0568863999797,circle,"(-480.0, -270.0)",0,1444.9503000359982,1444.920300040394,True,False
13,2,210.07449010002892,circle,"(-480.0, -270.0)",0,1462.5540000852197,1462.5240000896156,True,False
13,2,210.09053069993388,circle,"(-480.0, -270.0)",0,1478.5945999901742,1478.56459999457,True,False
13,2,210.10809220001101,circle,"(-480.0, -270.0)",0,1496.15610006731,1496.1261000717059,True,False
13,2,210.123997699935,circle,"(-480.0, -270.0)",0,1512.0615999912843,1512.0315999956802,True,False
13,2,210.141584899975,circle,"(-480.0, -270.0)",0,1529.648800031282,1529.6188000356779,True,False
13,2,210.15698079997674,circle,"(-480.0, -270.0)",0,1545.0447000330314,1545.0147000374272,True,False
13,2,210.17440210003406,circle,"(-480.0, -270.0)",0,1562.4660000903532,1562.436000094749,True,False
13,2,210.19077799993102,circle,"(-480.0, -270.0)",0,1578.8418999873102,1578.811899991706,True,False
13,2,210.2082549999468,circle,"(-480.0, -270.0)",0,1596.318900003098,1596.2889000074938,True,False
13,2,210.22624779993203,circle,"(-480.0, -270.0)",0,1614.3116999883205,1614.2816999927163,True,False
13,2,210.24153470003512,circle,"(-480.0, -270.0)",0,1629.5986000914127,1629.5686000958085,True,False
13,2,210.25986270001158,circle,"(-480.0, -270.0)",0,1647.9266000678763,1647.8966000722721,True,False
13,2,210.2745860000141,circle,"(-480.0, -270.0)",0,1662.6499000703916,1662.6199000747874,True,False
13,2,210.29211899999063,circle,"(-480.0, -270.0)",0,1680.1829000469297,1680.1529000513256,True,False
13,2,210.30808620003518,circle,"(-480.0, -270.0)",0,1696.1501000914723,1696.120100095868,True,False
13,2,210.3240352999419,circle,"(-480.0, -270.0)",0,1712.0991999981925,1712.0692000025883,True,False
13,2,210.34113489999436,circle,"(-480.0, -270.0)",0,1729.1988000506535,1729.1688000550494,True,False
13,2,210.3571956999367,circle,"(-480.0, -270.0)",0,1745.2595999930054,1745.2295999974012,True,False
13,2,210.37433809996583,circle,"(-480.0, -270.0)",0,1762.4020000221208,1762.3720000265166,True,False
13,2,210.390429400024,circle,"(-480.0, -270.0)",0,1778.4933000802994,1778.4633000846952,True,False
13,2,210.40851770003792,circle,"(-480.0, -270.0)",0,1796.581600094214,1796.55160009861,True,False
13,2,210.94268269999884,star,"(-480.0, 270.0)",268.16830004099756,2330.746600055136,2330.7166000595316,False,True
13,3,211.20925559999887,star,"(-480.0, 270.0)",263.11569998506457,2597.319500055164,266.5729000000283,True,False
13,3,211.22638799995184,star,"(-480.0, 270.0)",0,2614.4519000081345,283.70529995299876,True,False
13,3,211.24388999992516,star,"(-480.0, 270.0)",0,2631.953899981454,301.2072999263182,True,False
13,3,211.25678920000792,star,"(-480.0, 270.0)",0,2644.8531000642106,314.1065000090748,True,False
13,3,211.27429540001322,star,"(-480.0, 270.0)",0,2662.359300069511,331.61270001437515,True,False
13,3,211.29024320002645,star,"(-480.0, 270.0)",0,2678.3071000827476,347.56050002761185,True,False
13,3,211.30746769998223,star,"(-480.0, 270.0)",0,2695.531600038521,364.7849999833852,True,False
13,3,211.32360210001934,star,"(-480.0, 270.0)",0,2711.6660000756383,380.9194000205025,True,False
13,3,211.3404850999359,star,"(-480.0, 270.0)",0,2728.5489999921992,397.80239993706346,True,False
13,3,211.35659540002234,star,"(-480.0, 270.0)",0,2744.659300078638,413.9127000235021,True,False
13,3,211.3742317999713,star,"(-480.0, 270.0)",0,2762.2957000276074,431.5490999724716,True,False
13,3,211.39144499995746,star,"(-480.0, 270.0)",0,2779.5089000137523,448.7622999586165,True,False
13,3,211.40753680001944,star,"(-480.0, 270.0)",0,2795.600700075738,464.85410002060235,True,False
13,3,211.42618710000534,star,"(-480.0, 270.0)",0,2814.251000061631,483.5044000064954,True,False
13,3,211.4409134000307,star,"(-480.0, 270.0)",0,2828.97730008699,498.2307000318542,True,False
13,3,211.45715379994363,star,"(-480.0, 270.0)",0,2845.217699999921,514.4710999447852,True,False
13,3,211.47434870002326,star,"(-480.0, 270.0)",0,2862.4126000795513,531.6660000244156,True,False
13,3,211.4900036000181,star,"(-480.0, 270.0)",0,2878.067500074394,547.3209000192583,True,False
13,3,211.50750269996934,star,"(-480.0, 270.0)",0,2895.5666000256315,564.8199999704957,True,False
13,3,211.5234704000177,star,"(-480.0, 270.0)",0,2911.5343000739813,580.7877000188455,True,False
13,3,211.54093599994667,star,"(-480.0, 270.0)",0,2928.999900002964,598.253299947828,True,False
13,3,211.55694689997472,star,"(-480.0, 270.0)",0,2945.010800031014,614.264199975878,True,False
13,3,211.5755555999931,star,"(-480.0, 270.0)",0,2963.61950004939,632.8728999942541,True,False
13,3,211.59051350003574,star,"(-480.0, 270.0)",0,2978.5774000920355,647.8308000368997,True,False
13,3,211.6089820000343,star,"(-480.0, 270.0)",0,2997.0459000905976,666.2993000354618,True,False
13,3,211.62329719995614,star,"(-480.0, 270.0)",0,3011.3611000124365,680.6144999573007,True,False
13,3,211.64341649995185,star,"(-480.0, 270.0)",0,3031.4804000081494,700.7337999530137,True,False
13,3,211.65793889993802,star,"(-480.0, 270.0)",0,3046.002799994312,715.2561999391764,True,False
13,3,211.6748836999759,star,"(-480.0, 270.0)",0,3062.947600032203,732.2009999770671,True,False
13,3,211.69004040001892,star,"(-480.0, 270.0)",0,3078.1043000752106,747.3577000200748,True,False
13,3,211.70752559998073,star,"(-480.0, 270.0)",0,3095.589500037022,764.8428999818861,True,False
13,3,211.7234306000173,star,"(-480.0, 270.0)",0,3111.4945000736043,780.7479000184685,True,False
13,3,211.74067870003637,star,"(-480.0, 270.0)",0,3128.7426000926644,797.9960000375286,True,False
13,3,211.75689179997426,star,"(-480.0, 270.0)",0,3144.9557000305504,814.2090999754146,True,False
13,3,211.7741041999543,star,"(-480.0, 270.0)",0,3162.1681000106037,831.4214999554679,True,False
13,3,211.79007450002246,star,"(-480.0, 270.0)",0,3178.138400078751,847.3918000236154,True,False
13,3,211.80773290002253,star,"(-480.0, 270.0)",0,3195.796800078824,865.0502000236884,True,False
13,3,211.82559759996366,star,"(-480.0, 270.0)",0,3213.6615000199527,882.9148999648169,True,False
13,3,211.8415753999725,star,"(-480.0, 270.0)",0,3229.6393000287935,898.8926999736577,True,False
13,3,211.85988919995725,star,"(-480.0, 270.0)",0,3247.9531000135466,917.2064999584109,True,False
13,3,211.87479139992502,star,"(-480.0, 270.0)",0,3262.855299981311,932.1086999261752,True,False
13,3,211.89000939996913,star,"(-480.0, 270.0)",0,3278.073300025426,947.3266999702901,True,False
13,3,211.9071069000056,star,"(-480.0, 270.0)",0,3295.1708000618964,964.4242000067607,True,False
13,3,211.9229812999256,star,"(-480.0, 270.0)",0,3311.0451999818906,980.2985999267548,True,False
13,3,211.94041489996016,star,"(-480.0, 270.0)",0,3328.4788000164554,997.7321999613196,True,False
13,3,211.95666819997132,star,"(-480.0, 270.0)",0,3344.7321000276133,1013.9854999724776,True,False
13,3,211.9738618999254,star,"(-480.0, 270.0)",0,3361.925799981691,1031.1791999265552,True,False
13,3,211.9893451000098,star,"(-480.0, 270.0)",0,3377.409000066109,1046.6624000109732,True,False
13,3,212.00765249994583,star,"(-480.0, 270.0)",0,3395.7164000021294,1064.9697999469936,True,False
13,3,212.02448579994962,star,"(-480.0, 270.0)",0,3412.5497000059113,1081.8030999507755,True,False
13,3,212.04051039996557,star,"(-480.0, 270.0)",0,3428.5743000218645,1097.8276999667287,True,False
13,3,212.05838539998513,star,"(-480.0, 270.0)",0,3446.4493000414222,1115.7026999862865,True,False
13,3,212.06158740003593,t,"(480.0, 270.0)",251.6093000303954,3449.6513000922278,1118.904700037092,True,False
13,3,212.07625499996357,t,"(480.0, 270.0)",0,3464.3189000198618,1133.572299964726,True,False
13,3,212.09235119994264,t,"(480.0, 270.0)",0,3480.415099998936,1149.6684999438003,True,False
13,3,212.10757799993735,t,"(480.0, 270.0)",0,3495.641899993643,1164.8952999385074,True,False
13,3,212.12318130000494,t,"(480.0, 270.0)",0,3511.2452000612393,1180.4986000061035,True,False
13,3,212.14015220000874,t,"(480.0, 270.0)",0,3528.2161000650376,1197.4695000099018,True,False
13,3,212.15621259994805,t,"(480.0, 270.0)",0,3544.2765000043437,1213.529899949208,True,False
13,3,212.17325100000016,t,"(480.0, 270.0)",0,3561.314900056459,1230.5683000013232,True,False
13,3,212.18933039996773,t,"(480.0, 270.0)",0,3577.394300024025,1246.6476999688894,True,False
13,3,212.2064547999762,t,"(480.0, 270.0)",0,3594.518700032495,1263.7720999773592,True,False
13,3,212.22269389999565,t,"(480.0, 270.0)",0,3610.7578000519425,1280.0111999968067,True,False
13,3,212.24043469992466,t,"(480.0, 270.0)",0,3628.498599980958,1297.751999925822,True,False
13,3,212.2579077000264,t,"(480.0, 270.0)",0,3645.971600082703,1315.2250000275671,True,False
13,3,212.27363890002016,t,"(480.0, 270.0)",0,3661.702800076455,1330.956200021319,True,False
13,3,212.29239239997696,t,"(480.0, 270.0)",0,3680.4563000332564,1349.7096999781206,True,False
13,3,212.3070150000276,t,"(480.0, 270.0)",0,3695.0789000838995,1364.3323000287637,True,False
13,3,212.32247589994222,t,"(480.0, 270.0)",0,3710.5397999985144,1379.7931999433786,True,False
13,3,212.33993549994193,t,"(480.0, 270.0)",0,3727.9993999982253,1397.2527999430895,True,False
13,3,212.3558510999428,t,"(480.0, 270.0)",0,3743.914999999106,1413.1683999439701,True,False
13,3,212.37387989996932,t,"(480.0, 270.0)",0,3761.9438000256196,1431.1971999704838,True,False
13,3,212.38966350001283,t,"(480.0, 270.0)",0,3777.727400069125,1446.9808000139892,True,False
13,3,212.40966609993484,t,"(480.0, 270.0)",0,3797.729999991134,1466.983399935998,True,False
13,3,212.4231512999395,t,"(480.0, 270.0)",0,3811.215199995786,1480.4685999406502,True,False
13,3,212.44144570000935,t,"(480.0, 270.0)",0,3829.5096000656486,1498.7630000105128,True,False
13,3,212.45614859997295,t,"(480.0, 270.0)",0,3844.2125000292435,1513.4658999741077,True,False
13,3,212.47313890000805,t,"(480.0, 270.0)",0,3861.2028000643477,1530.456200009212,True,False
13,3,212.48989369999617,t,"(480.0, 270.0)",0,3877.9576000524685,1547.2109999973327,True,False
13,3,212.49212239996996,star,"(-480.0, 270.0)",263.8174999738112,3880.186300026253,1549.439699971117,True,False
13,3,212.50994399993215,star,"(-480.0, 270.0)",0,3898.0078999884427,1567.2612999333069,True,False
13,3,212.52306639996823,star,"(-480.0, 270.0)",0,3911.1303000245243,1580.3836999693885,True,False
13,3,212.54058919998351,star,"(-480.0, 270.0)",0,3928.65310003981,1597.9064999846742,True,False
13,3,212.55607119994238,star,"(-480.0, 270.0)",0,3944.1350999986753,1613.3884999435395,True,False
13,3,212.5743110999465,star,"(-480.0, 270.0)",0,3962.375000002794,1631.6283999476582,True,False
13,3,212.58976180001628,star,"(-480.0, 270.0)",0,3977.8257000725716,1647.0791000174358,True,False
13,3,212.61005419993307,star,"(-480.0, 270.0)",0,3998.1180999893695,1667.3714999342337,True,False
13,3,212.6230100999819,star,"(-480.0, 270.0)",0,4011.0740000382066,1680.3273999830708,True,False
13,3,212.64242639997974,star,"(-480.0, 270.0)",0,4030.4903000360355,1699.7436999808997,True,False
13,3,212.65632639999967,star,"(-480.0, 270.0)",0,4044.390300055966,1713.64370000083,True,False
13,3,212.67351100000087,star,"(-480.0, 270.0)",0,4061.574900057167,1730.828300002031,True,False
13,3,212.6892481999239,star,"(-480.0, 270.0)",0,4077.3120999801904,1746.5654999250546,True,False
13,3,212.70636700000614,star,"(-480.0, 270.0)",0,4094.4309000624344,1763.6843000072986,True,False
13,3,212.7224203000078,star,"(-480.0, 270.0)",0,4110.484200064093,1779.737600008957,True,False
13,3,212.73971110000275,star,"(-480.0, 270.0)",0,4127.775000059046,1797.02840000391,True,False
13,3,213.57309049996547,t,"(480.0, 270.0)",250.36439998075366,4961.154400021769,2630.4077999666333,False,True
13,4,216.5385514999507,star,"(-480.0, 270.0)",266.0949999699369,7926.615400006995,2965.4609999852255,False,True
14,1,220.6570051999297,circle,"(-480.0, -270.0)",0,0.011199968867003918,0.011199968867003918,False,True
14,2,220.92106089997105,star,"(-480.0, 270.0)",262.24259997252375,264.0669000102207,264.0557000413537,True,False
14,2,220.94028550002258,star,"(-480.0, 270.0)",0,283.2915000617504,283.2803000928834,True,False
14,2,220.95729139994364,star,"(-480.0, 270.0)",0,300.29739998281,300.286200013943,True,False
14,2,220.9704383999342,star,"(-480.0, 270.0)",0,313.4443999733776,313.4332000045106,True,False
14,2,220.99026789993513,star,"(-480.0, 270.0)",0,333.27389997430146,333.26270000543445,True,False
14,2,221.00410180003382,star,"(-480.0, 270.0)",0,347.10780007299036,347.09660010412335,True,False
14,2,221.02316179999616,star,"(-480.0, 270.0)",0,366.1678000353277,366.15660006646067,True,False
14,2,221.03692500002217,star,"(-480.0, 270.0)",0,379.9310000613332,379.9198000924662,True,False
14,2,221.05428379995283,star,"(-480.0, 270.0)",0,397.2897999919951,397.2786000231281,True,False
14,2,221.07026519998908,star,"(-480.0, 270.0)",0,413.27120002824813,413.2600000593811,True,False
14,2,221.0875170000363,star,"(-480.0, 270.0)",0,430.52300007548183,430.5118001066148,True,False
14,2,221.10376149998046,star,"(-480.0, 270.0)",0,446.7675000196323,446.7563000507653,True,False
14,2,221.12077899998985,star,"(-480.0, 270.0)",0,463.78500002902,463.773800060153,True,False
14,2,221.13722409994807,star,"(-480.0, 270.0)",0,480.23009998723865,480.21890001837164,True,False
14,2,221.156083400012,star,"(-480.0, 270.0)",0,499.08940005116165,499.07820008229464,True,False
14,2,221.17024020000827,star,"(-480.0, 270.0)",0,513.2462000474334,513.2350000785664,True,False
14,2,221.19166409992613,star,"(-480.0, 270.0)",0,534.6700999652967,534.6588999964297,True,False
14,2,221.2037510999944,star,"(-480.0, 270.0)",0,546.7571000335738,546.7459000647068,True,False
14,2,221.22282729996368,star,"(-480.0, 270.0)",0,565.8333000028506,565.8221000339836,True,False
14,2,221.23709970002528,star,"(-480.0, 270.0)",0,580.1057000644505,580.0945000955835,True,False
14,2,221.25427469995338,star,"(-480.0, 270.0)",0,597.2806999925524,597.2695000236854,True,False
14,2,221.2701812000014,star,"(-480.0, 270.0)",0,613.1872000405565,613.1760000716895,True,False
14,2,221.2874063999625,star,"(-480.0, 270.0)",0,630.41240000166,630.401200032793,True,False
14,2,221.30390659999102,star,"(-480.0, 270.0)",0,646.9126000301912,646.9014000613242,True,False
14,2,221.32132470002398,star,"(-480.0, 270.0)",0,664.3307000631467,664.3195000942796,True,False
14,2,221.33676969993394,star,"(-480.0, 270.0)",0,679.7756999731064,679.7645000042394,True,False
14,2,221.35433360002935,star,"(-480.0, 270.0)",0,697.339600068517,697.32840009965,True,False
14,2,221.37006210000254,star,"(-480.0, 270.0)",0,713.0681000417098,713.0569000728428,True,False
14,2,221.38876529992558,star,"(-480.0, 270.0)",0,731.7712999647483,731.7600999958813,True,False
14,2,221.40363990003243,star,"(-480.0, 270.0)",0,746.6459000715986,746.6347001027316,True,False
14,2,221.4221564999316,star,"(-480.0, 270.0)",0,765.1624999707565,765.1513000018895,True,False
14,2,221.42582130001392,circle,"(-480.0, -270.0)",266.62640005815774,768.8273000530899,768.8161000842229,True,False
14,2,221.44043690001126,circle,"(-480.0, -270.0)",0,783.4429000504315,783.4317000815645,True,False
14,2,221.45724459993653,circle,"(-480.0, -270.0)",0,800.2505999756977,800.2394000068307,True,False
14,2,221.47020490001887,circle,"(-480.0, -270.0)",0,813.2109000580385,813.1997000891715,True,False
14,2,221.48899540002458,circle,"(-480.0, -270.0)",0,832.0014000637457,831.9902000948787,True,False
14,2,221.50427409994882,circle,"(-480.0, -270.0)",0,847.2800999879837,847.2689000191167,True,False
14,2,221.52101699996274,circle,"(-480.0, -270.0)",0,864.0230000019073,864.0118000330403,True,False
14,2,221.53680959995836,circle,"(-480.0, -270.0)",0,879.8155999975279,879.8044000286609,True,False
14,2,221.55440369993448,circle,"(-480.0, -270.0)",0,897.4096999736503,897.3985000047833,True,False
14,2,221.5704257999314,circle,"(-480.0, -270.0)",0,913.4317999705672,913.4206000017002,True,False
14,2,221.58768809994217,circle,"(-480.0, -270.0)",0,930.6940999813378,930.6829000124708,True,False
14,2,221.60327910003252,circle,"(-480.0, -270.0)",0,946.285100071691,946.273900102824,True,False
14,2,221.6206181999296,circle,"(-480.0, -270.0)",0,963.6241999687627,963.6129999998957,True,False
14,2,221.63642550003715,circle,"(-480.0, -270.0)",0,979.4315000763163,979.4203001074493,True,False
14,2,221.65540589997545,circle,"(-480.0, -270.0)",0,998.4119000146165,998.4007000457495,True,False
14,2,221.67007290001493,circle,"(-480.0, -270.0)",0,1013.0789000540972,1013.0677000852302,True,False
14,2,221.69059829995967,circle,"(-480.0, -270.0)",0,1033.6042999988422,1033.5931000299752,True,False
14,2,221.70360529993195,circle,"(-480.0, -270.0)",0,1046.6112999711186,1046.6001000022516,True,False
14,2,221.72281529998872,circle,"(-480.0, -270.0)",0,1065.821300027892,1065.810100059025,True,False
14,2,221.73695119994227,circle,"(-480.0, -270.0)",0,1079.9571999814361,1079.9460000125691,True,False
14,2,221.75440390000585,circle,"(-480.0, -270.0)",0,1097.4099000450224,1097.3987000761554,True,False
14,2,221.77015749993734,circle,"(-480.0, -270.0)",0,1113.1634999765083,1113.1523000076413,True,False
14,2,221.78735540003981,circle,"(-480.0, -270.0)",0,1130.3614000789821,1130.350200110115,True,False
14,2,221.8034618999809,circle,"(-480.0, -270.0)",0,1146.4679000200704,1146.4567000512034,True,False
14,2,221.82091240002774,circle,"(-480.0, -270.0)",0,1163.9184000669047,1163.9072000980377,True,False
14,2,221.8368155999342,circle,"(-480.0, -270.0)",0,1179.8215999733657,1179.8104000044987,True,False
14,2,221.85406119993422,circle,"(-480.0, -270.0)",0,1197.0671999733895,1197.0560000045225,True,False
14,2,221.87013519997708,circle,"(-480.0, -270.0)",0,1213.1412000162527,1213.1300000473857,True,False
14,2,221.88737839995883,circle,"(-480.0, -270.0)",0,1230.3843999980018,1230.3732000291348,True,False
14,2,221.90659909998067,circle,"(-480.0, -270.0)",0,1249.605100019835,1249.593900050968,True,False
14,2,221.92054530000314,circle,"(-480.0, -270.0)",0,1263.5513000423089,1263.5401000734419,True,False
14,2,221.93726629996672,circle,"(-480.0, -270.0)",0,1280.2723000058904,1280.2611000370234,True,False
14,2,221.95390159997623,circle,"(-480.0, -270.0)",0,1296.9076000154018,1296.8964000465348,True,False
14,2,221.97230289992876,circle,"(-480.0, -270.0)",0,1315.3088999679312,1315.2976999990642,True,False
14,2,221.98729620000813,circle,"(-480.0, -270.0)",0,1330.3022000472993,1330.2910000784323,True,False
14,2,222.00367719994392,circle,"(-480.0, -270.0)",0,1346.6831999830902,1346.6720000142232,True,False
14,2,222.02045489999,circle,"(-480.0, -270.0)",0,1363.4609000291675,1363.4497000603005,True,False
14,2,222.03645729995333,circle,"(-480.0, -270.0)",0,1379.4632999924943,1379.4521000236273,True,False
14,2,222.0536473999964,circle,"(-480.0, -270.0)",0,1396.653400035575,1396.642200066708,True,False
14,2,222.0699811000377,circle,"(-480.0, -270.0)",0,1412.9871000768617,1412.9759001079947,True,False
14,2,222.09005340002477,circle,"(-480.0, -270.0)",0,1433.0594000639394,1433.0482000950724,True,False
14,2,222.1034326000372,circle,"(-480.0, -270.0)",0,1446.4386000763625,1446.4274001074955,True,False
14,2,222.12309300003108,circle,"(-480.0, -270.0)",0,1466.099000070244,1466.087800101377,True,False
14,2,222.13785149995238,circle,"(-480.0, -270.0)",0,1480.8574999915436,1480.8463000226766,True,False
14,2,222.15696169994771,circle,"(-480.0, -270.0)",0,1499.9676999868825,1499.9565000180155,True,False
14,2,222.17058429995086,circle,"(-480.0, -270.0)",0,1513.5902999900281,1513.5791000211611,True,False
14,2,222.1885332999518,circle,"(-480.0, -270.0)",0,1531.5392999909818,1531.5281000221148,True,False
14,2,222.20413369999733,circle,"(-480.0, -270.0)",0,1547.139700036496,1547.128500067629,True,False
14,2,222.22130039997865,circle,"(-480.0, -270.0)",0,1564.3064000178128,1564.2952000489458,True,False
14,2,222.23669619997963,circle,"(-480.0, -270.0)",0,1579.7022000188008,1579.6910000499338,True,False
14,2,222.25395909999497,circle,"(-480.0, -270.0)",0,1596.96510003414,1596.953900065273,True,False
14,2,222.27004540001508,circle,"(-480.0, -270.0)",0,1613.0514000542462,1613.0402000853792,True,False
14,2,222.28738530003466,circle,"(-480.0, -270.0)",0,1630.3913000738248,1630.3801001049578,True,False
14,2,222.30278989998624,circle,"(-480.0, -270.0)",0,1645.795900025405,1645.784700056538,True,False
14,2,222.32003549998626,circle,"(-480.0, -270.0)",0,1663.0415000254288,1663.0303000565618,True,False
14,2,222.3362577999942,circle,"(-480.0, -270.0)",0,1679.2638000333682,1679.2526000645012,True,False
14,2,222.3544348999858,circle,"(-480.0, -270.0)",0,1697.440900024958,1697.429700056091,True,False
14,2,222.370236299932,circle,"(-480.0, -270.0)",0,1713.2422999711707,1713.2311000023037,True,False
14,2,222.38985199993476,circle,"(-480.0, -270.0)",0,1732.8579999739304,1732.8468000050634,True,False
14,2,222.40327330003493,circle,"(-480.0, -270.0)",0,1746.279300074093,1746.268100105226,True,False
14,2,222.42274730000645,circle,"(-480.0, -270.0)",0,1765.753300045617,1765.74210007675,True,False
14,2,223.65409650001675,t,"(480.0, 270.0)",267.9706000490114,2997.1025000559166,2997.0913000870496,False,True
14,3,224.0198517999379,star,"(-480.0, 270.0)",266.28539990633726,3362.857799977064,365.7552999211475,True,False
14,3,224.04143640003167,star,"(-480.0, 270.0)",0,3384.4424000708386,387.339900014922,True,False
14,3,224.0530671000015,star,"(-480.0, 270.0)",0,3396.0731000406668,398.97059998475015,True,False
14,3,224.0753908000188,star,"(-480.0, 270.0)",0,3418.3968000579625,421.29430000204593,True,False
14,3,224.08678110002074,star,"(-480.0, 270.0)",0,3429.7871000599116,432.684600003995,True,False
14,3,224.1055565000279,star,"(-480.0, 270.0)",0,3448.562500067055,451.4600000111386,True,False
14,3,224.120802899939,star,"(-480.0, 270.0)",0,3463.8088999781758,466.70639992225915,True,False
14,3,224.14007510000374,star,"(-480.0, 270.0)",0,3483.0811000429094,485.9785999869928,True,False
14,3,224.15463240002282,star,"(-480.0, 270.0)",0,3497.6384000619873,500.53590000607073,True,False
14,3,224.16960559994914,star,"(-480.0, 270.0)",0,3512.611599988304,515.5090999323875,True,False
14,3,224.18650349997915,star,"(-480.0, 270.0)",0,3529.509500018321,532.4069999624044,True,False
14,3,224.20273170003202,star,"(-480.0, 270.0)",0,3545.737700071186,548.6352000152692,True,False
14,3,224.22007939999457,star,"(-480.0, 270.0)",0,3563.085400033742,565.9828999778256,True,False
14,3,224.23606709996238,star,"(-480.0, 270.0)",0,3579.073100001551,581.9705999456346,True,False
14,3,224.25621809996665,star,"(-480.0, 270.0)",0,3599.224100005813,602.1215999498963,True,False
14,3,224.26940999994986,star,"(-480.0, 270.0)",0,3612.4159999890253,615.3134999331087,True,False
14,3,224.28866089996882,star,"(-480.0, 270.0)",0,3631.6669000079855,634.5643999520689,True,False
14,3,224.302816899959,star,"(-480.0, 270.0)",0,3645.8228999981657,648.7203999422491,True,False
14,3,224.32190839992836,star,"(-480.0, 270.0)",0,3664.914399967529,667.8118999116123,True,False
14,3,224.33610910002608,star,"(-480.0, 270.0)",0,3679.115100065246,682.0126000093296,True,False
14,3,224.3534137000097,star,"(-480.0, 270.0)",0,3696.419700048864,699.3171999929473,True,False
14,3,224.36973659996875,star,"(-480.0, 270.0)",0,3712.742600007914,715.6400999519974,True,False
14,3,224.38709099998232,star,"(-480.0, 270.0)",0,3730.0970000214875,732.9944999655709,True,False
14,3,224.4027342000045,star,"(-480.0, 270.0)",0,3745.740200043656,748.6376999877393,True,False
14,3,224.4203220999334,star,"(-480.0, 270.0)",0,3763.3280999725685,766.2255999166518,True,False
14,3,224.4360667000292,star,"(-480.0, 270.0)",0,3779.0727000683546,781.970200012438,True,False
14,3,224.45506710000336,star,"(-480.0, 270.0)",0,3798.0731000425294,800.9705999866128,True,False
14,3,224.46976749994792,star,"(-480.0, 270.0)",0,3812.773499987088,815.6709999311715,True,False
14,3,224.48821029998362,star,"(-480.0, 270.0)",0,3831.2163000227883,834.1137999668717,True,False
14,3,224.503138900036,star,"(-480.0, 270.0)",0,3846.14490007516,849.0424000192434,True,False
14,3,224.52293209999334,star,"(-480.0, 270.0)",0,3865.9381000325084,868.8355999765918,True,False
14,3,224.52565490000416,t,"(480.0, 270.0)",266.4828000124544,3868.6609000433236,871.558399987407,True,False
14,3,224.54015579994302,t,"(480.0, 270.0)",0,3883.16179998219,886.0592999262735,True,False
14,3,224.55591370002367,t,"(480.0, 270.0)",0,3898.9197000628337,901.8172000069171,True,False
14,3,224.56973230000585,t,"(480.0, 270.0)",0,3912.738300045021,915.6357999891043,True,False
14,3,224.58718030003365,t,"(480.0, 270.0)",0,3930.186300072819,933.0838000169024,True,False
14,3,224.60290509997867,t,"(480.0, 270.0)",0,3945.911100017838,948.8085999619216,True,False
14,3,224.62016169994604,t,"(480.0, 270.0)",0,3963.167699985206,966.0651999292895,True,False
14,3,224.63630280003417,t,"(480.0, 270.0)",0,3979.3088000733405,982.2063000174239,True,False
14,3,224.65323289996013,t,"(480.0, 270.0)",0,3996.238899999298,999.1363999433815,True,False
14,3,224.66883849992882,t,"(480.0, 270.0)",0,4011.8444999679923,1014.7419999120757,True,False
14,3,224.68739869992714,t,"(480.0, 270.0)",0,4030.4046999663115,1033.3021999103948,True,False
14,3,224.70342399994843,t,"(480.0, 270.0)",0,4046.429999987595,1049.3274999316782,True,False
14,3,224.719755899976,t,"(480.0, 270.0)",0,4062.7619000151753,1065.6593999592587,True,False
14,3,224.73686750000343,t,"(480.0, 270.0)",0,4079.873500042595,1082.7709999866784,True,False
14,3,224.75308860000223,t,"(480.0, 270.0)",0,4096.094600041397,1098.9920999854803,True,False
14,3,224.77204389998224,t,"(480.0, 270.0)",0,4115.049900021404,1117.9473999654874,True,False
14,3,224.7862420999445,t,"(480.0, 270.0)",0,4129.24809998367,1132.1455999277532,True,False
14,3,224.80310200003441,t,"(480.0, 270.0)",0,4146.108000073582,1149.0055000176653,True,False
14,3,224.81993979995605,t,"(480.0, 270.0)",0,4162.945799995214,1165.8432999392971,True,False
14,3,224.83576069993433,t,"(480.0, 270.0)",0,4178.766699973494,1181.6641999175772,True,False
14,3,224.85329659993295,t,"(480.0, 270.0)",0,4196.302599972114,1199.2000999161974,True,False
14,3,224.86917439999525,t,"(480.0, 270.0)",0,4212.180400034413,1215.0778999784961,True,False
14,3,224.88671550003346,t,"(480.0, 270.0)",0,4229.721500072628,1232.6190000167117,True,False
14,3,224.9020536999451,t,"(480.0, 270.0)",0,4245.059699984267,1247.9571999283507,True,False
14,3,224.91982800001279,t,"(480.0, 270.0)",0,4262.834000051953,1265.7314999960363,True,False
14,3,224.9348611999303,t,"(480.0, 270.0)",0,4277.867199969478,1280.7646999135613,True,False
14,3,224.95298129995354,t,"(480.0, 270.0)",0,4295.987299992703,1298.8847999367863,True,False
14,3,224.96987399994396,t,"(480.0, 270.0)",0,4312.879999983124,1315.7774999272078,True,False
14,3,224.9864072999917,t,"(480.0, 270.0)",0,4329.413300030865,1332.3107999749482,True,False
14,3,225.00406780000776,t,"(480.0, 270.0)",0,4347.073800046928,1349.9712999910116,True,False
14,3,225.0197146999417,t,"(480.0, 270.0)",0,4362.720699980855,1365.6181999249384,True,False
14,3,225.03739559999667,t,"(480.0, 270.0)",0,4380.401600035839,1383.2990999799222,True,False
14,3,225.03947319998406,star,"(-480.0, 270.0)",251.47769995965064,4382.479200023226,1385.3766999673098,True,False
14,3,225.05597480002325,star,"(-480.0, 270.0)",0,4398.980800062418,1401.8783000065014,True,False
14,3,225.06895250000525,star,"(-480.0, 270.0)",0,4411.95850004442,1414.8559999885038,True,False
14,3,225.08608489995822,star,"(-480.0, 270.0)",0,4429.090899997391,1431.9883999414742,True,False
14,3,225.1016778999474,star,"(-480.0, 270.0)",0,4444.683899986558,1447.581399930641,True,False
14,3,225.11978780000936,star,"(-480.0, 270.0)",0,4462.79380004853,1465.6912999926135,True,False
14,3,225.13578949996736,star,"(-480.0, 270.0)",0,4478.795500006527,1481.69299995061,True,False
14,3,225.15300649998244,star,"(-480.0, 270.0)",0,4496.012500021607,1498.90999996569,True,False
14,3,225.16835930000525,star,"(-480.0, 270.0)",0,4511.365300044417,1514.2627999885008,True,False
14,3,225.18691029993352,star,"(-480.0, 270.0)",0,4529.916299972683,1532.8137999167666,True,False
14,3,225.20269279996864,star,"(-480.0, 270.0)",0,4545.698800007813,1548.596299951896,True,False
14,3,225.22190579993185,star,"(-480.0, 270.0)",0,4564.911799971014,1567.8092999150977,True,False
14,3,225.23564309999347,star,"(-480.0, 270.0)",0,4578.649100032635,1581.5465999767184,True,False
14,3,225.2554194999393,star,"(-480.0, 270.0)",0,4598.425499978475,1601.3229999225587,True,False
14,3,225.26930449996144,star,"(-480.0, 270.0)",0,4612.3105000006035,1615.207999944687,True,False
14,3,225.28664800000843,star,"(-480.0, 270.0)",0,4629.654000047594,1632.5514999916777,True,False
14,3,225.3021188999992,star,"(-480.0, 270.0)",0,4645.124900038354,1648.0223999824375,True,False
14,3,225.31954319996294,star,"(-480.0, 270.0)",0,4662.549200002104,1665.4466999461874,True,False
14,3,225.3354814000195,star,"(-480.0, 270.0)",0,4678.487400058657,1681.3849000027403,True,False
14,3,225.35295830003452,star,"(-480.0, 270.0)",0,4695.964300073683,1698.8618000177667,True,False
14,3,225.3690370999975,star,"(-480.0, 270.0)",0,4712.043100036681,1714.940599980764,True,False
14,3,225.38642679993063,star,"(-480.0, 270.0)",0,4729.4327999698,1732.3302999138832,True,False
14,3,225.40192660002504,star,"(-480.0, 270.0)",0,4744.932600064203,1747.8301000082865,True,False
14,3,225.41973940003663,star,"(-480.0, 270.0)",0,4762.745400075801,1765.642900019884,True,False
14,3,225.43673790001776,star,"(-480.0, 270.0)",0,4779.743900056928,1782.6414000010118,True,False
14,3,225.4529787999345,star,"(-480.0, 270.0)",0,4795.984799973667,1798.88229991775,True,False
14,3,226.38661769998726,star,"(-480.0, 270.0)",267.65399996656924,5729.623700026423,2732.521199970506,False,True
14,4,229.6009214000078,circle,"(-480.0, -270.0)",250.9606999810785,8943.92740004696,3214.303700020537,False,True
15,1,233.70296120003331,circle,"(-480.0, -270.0)",0,0.018700025975704193,0.018700025975704193,False,True
15,2,233.9659815999912,circle,"(-480.0, -270.0)",258.8726000394672,263.039099983871,263.0203999578953,True,False
15,2,233.98640609998256,circle,"(-480.0, -270.0)",0,283.46359997522086,283.44489994924515,True,False
15,2,233.99979159992654,circle,"(-480.0, -270.0)",0,296.84909991919994,296.83039989322424,True,False
15,2,234.01702080003452,circle,"(-480.0, -270.0)",0,314.07830002717674,314.05960000120103,True,False
15,2,234.0352300000377,circle,"(-480.0, -270.0)",0,332.2875000303611,332.2688000043854,True,False
15,2,234.0511422000127,circle,"(-480.0, -270.0)",0,348.1997000053525,348.1809999793768,True,False
15,2,234.0682670000242,circle,"(-480.0, -270.0)",0,365.3245000168681,365.3057999908924,True,False
15,2,234.0835549000185,circle,"(-480.0, -270.0)",0,380.6124000111595,380.5936999851838,True,False
15,2,234.09960039996076,circle,"(-480.0, -270.0)",0,396.65789995342493,396.6391999274492,True,False
15,2,234.11644659994636,circle,"(-480.0, -270.0)",0,413.5040999390185,413.4853999130428,True,False
15,2,234.132631400018,circle,"(-480.0, -270.0)",0,429.6889000106603,429.6701999846846,True,False
15,2,234.15006399992853,circle,"(-480.0, -270.0)",0,447.1214999211952,447.1027998952195,True,False
15,2,234.16614490002394,circle,"(-480.0, -270.0)",0,463.2024000165984,463.1836999906227,True,False
15,2,234.18327659997158,circle,"(-480.0, -270.0)",0,480.3340999642387,480.315399938263,True,False
15,2,234.19937960000243,circle,"(-480.0, -270.0)",0,496.43709999509156,496.41839996911585,True,False
15,2,234.21682099997997,circle,"(-480.0, -270.0)",0,513.878499972634,513.8597999466583,True,False
15,2,234.23291120002978,circle,"(-480.0, -270.0)",0,529.9687000224367,529.949999996461,True,False
15,2,234.25295999995433,circle,"(-480.0, -270.0)",0,550.0174999469891,549.9987999210134,True,False
15,2,234.2662339999806,circle,"(-480.0, -270.0)",0,563.2914999732748,563.2727999472991,True,False
15,2,234.28549529996235,circle,"(-480.0, -270.0)",0,582.5527999550104,582.5340999290347,True,False
15,2,234.29936229996383,circle,"(-480.0, -270.0)",0,596.4197999564931,596.4010999305174,True,False
15,2,234.3166664999444,circle,"(-480.0, -270.0)",0,613.723999937065,613.7052999110892,True,False
15,2,234.33270050003193,circle,"(-480.0, -270.0)",0,629.7580000245944,629.7392999986187,True,False
15,2,234.34995069995057,circle,"(-480.0, -270.0)",0,647.0081999432296,646.9894999172539,True,False
15,2,234.36643749999348,circle,"(-480.0, -270.0)",0,663.4949999861419,663.4762999601662,True,False
15,2,234.3834214999806,circle,"(-480.0, -270.0)",0,680.4789999732748,680.4602999472991,True,False
15,2,234.4001789999893,circle,"(-480.0, -270.0)",0,697.2364999819547,697.217799955979,True,False
15,2,234.41660360002425,circle,"(-480.0, -270.0)",0,713.6611000169069,713.6423999909312,True,False
15,2,234.4342428999953,circle,"(-480.0, -270.0)",0,731.3003999879584,731.2816999619827,True,False
15,2,234.44993340002839,circle,"(-480.0, -270.0)",0,746.9909000210464,746.9721999950707,True,False
15,2,234.46860649995506,circle,"(-480.0, -270.0)",0,765.6639999477193,765.6452999217436,True,False
15,2,234.48339489998762,circle,"(-480.0, -270.0)",0,780.4523999802768,780.4336999543011,True,False
15,2,234.4992315999698,circle,"(-480.0, -270.0)",0,796.2890999624506,796.2703999364749,True,False
15,2,234.51648640003987,circle,"(-480.0, -270.0)",0,813.5439000325277,813.525200006552,True,False
15,2,234.53266759996768,circle,"(-480.0, -270.0)",0,829.725099960342,829.7063999343663,True,False
15,2,234.54991259996314,circle,"(-480.0, -270.0)",0,846.9700999557972,846.9513999298215,True,False
15,2,234.5659627999412,circle,"(-480.0, -270.0)",0,863.0202999338508,863.0015999078751,True,False
15,2,234.58334360003937,circle,"(-480.0, -270.0)",0,880.4011000320315,880.3824000060558,True,False
15,2,234.59865459997673,circle,"(-480.0, -270.0)",0,895.712099969387,895.6933999434114,True,False
15,2,234.61790199996904,circle,"(-480.0, -270.0)",0,914.9594999616966,914.9407999357209,True,False
15,2,234.63240529992618,circle,"(-480.0, -270.0)",0,929.4627999188378,929.4440998928621,True,False
15,2,234.6524523999542,circle,"(-480.0, -270.0)",0,949.509899946861,949.4911999208853,True,False
15,2,234.66603870003019,circle,"(-480.0, -270.0)",0,963.0962000228465,963.0774999968708,True,False
15,2,234.6851059999317,circle,"(-480.0, -270.0)",0,982.1634999243543,982.1447998983786,True,False
15,2,234.6992772000376,circle,"(-480.0, -270.0)",0,996.3347000302747,996.316000004299,True,False
15,2,234.7164850999834,circle,"(-480.0, -270.0)",0,1013.5425999760628,1013.5238999500871,True,False
15,2,234.73253589996602,circle,"(-480.0, -270.0)",0,1029.593399958685,1029.5746999327093,True,False
15,2,234.74975920002908,circle,"(-480.0, -270.0)",0,1046.8167000217363,1046.7979999957606,True,False
15,2,234.76589339994825,circle,"(-480.0, -270.0)",0,1062.9508999409154,1062.9321999149397,True,False
15,2,234.78310160001274,circle,"(-480.0, -270.0)",0,1080.1591000054032,1080.1403999794275,True,False
15,2,234.79963190003764,circle,"(-480.0, -270.0)",0,1096.6894000303,1096.6707000043243,True,False
15,2,234.8165998000186,circle,"(-480.0, -270.0)",0,1113.6573000112548,1113.6385999852791,True,False
15,2,234.83402830001432,circle,"(-480.0, -270.0)",0,1131.0858000069857,1131.06709998101,True,False
15,2,234.84971089998726,circle,"(-480.0, -270.0)",0,1146.7683999799192,1146.7496999539435,True,False
15,2,234.86755450000055,circle,"(-480.0, -270.0)",0,1164.6119999932125,1164.5932999672368,True,False
15,2,234.88294629997108,circle,"(-480.0, -270.0)",0,1180.0037999637425,1179.9850999377668,True,False
15,2,234.89901659998577,circle,"(-480.0, -270.0)",0,1196.074099978432,1196.0553999524564,True,False
15,2,234.91614230000414,circle,"(-480.0, -270.0)",0,1213.1997999968007,1213.181099970825,True,False
15,2,234.9322519999696,circle,"(-480.0, -270.0)",0,1229.3094999622554,1229.2907999362797,True,False
15,2,234.94948880001903,circle,"(-480.0, -270.0)",0,1246.546300011687,1246.5275999857113,True,False
15,2,234.96571989997756,circle,"(-480.0, -270.0)",0,1262.7773999702185,1262.7586999442428,True,False
15,2,234.9828656000318,circle,"(-480.0, -270.0)",0,1279.9231000244617,1279.904399998486,True,False
15,2,234.9982927000383,circle,"(-480.0, -270.0)",0,1295.3502000309527,1295.331500004977,True,False
15,2,235.01695520000067,circle,"(-480.0, -270.0)",0,1314.0126999933273,1313.9939999673516,True,False
15,2,235.03222239995375,circle,"(-480.0, -270.0)",0,1329.279899946414,1329.2611999204382,True,False
15,2,235.051159500028,circle,"(-480.0, -270.0)",0,1348.217000020668,1348.1982999946922,True,False
15,2,235.06604209996294,circle,"(-480.0, -270.0)",0,1363.0995999556035,1363.0808999296278,True,False
15,2,235.08534290001262,circle,"(-480.0, -270.0)",0,1382.400400005281,1382.3816999793053,True,False
15,2,235.09944549994543,circle,"(-480.0, -270.0)",0,1396.5029999380931,1396.4842999121174,True,False
15,2,235.11711949994788,circle,"(-480.0, -270.0)",0,1414.176999940537,1414.1582999145612,True,False
15,2,235.13232700002845,circle,"(-480.0, -270.0)",0,1429.384500021115,1429.3657999951392,True,False
15,2,235.14979639998637,circle,"(-480.0, -270.0)",0,1446.8538999790326,1446.8351999530569,True,False
15,2,235.16553030000068,circle,"(-480.0, -270.0)",0,1462.5877999933437,1462.569099967368,True,False
15,2,235.18308180000167,circle,"(-480.0, -270.0)",0,1480.1392999943346,1480.1205999683589,True,False
15,2,235.19920909998473,circle,"(-480.0, -270.0)",0,1496.266599977389,1496.2478999514133,True,False
15,2,235.21641609992366,circle,"(-480.0, -270.0)",0,1513.473599916324,1513.4548998903483,True,False
15,2,235.2334269999992,circle,"(-480.0, -270.0)",0,1530.4844999918714,1530.4657999658957,True,False
15,2,235.24981670000125,circle,"(-480.0, -270.0)",0,1546.8741999939084,1546.8554999679327,True,False
15,2,235.2686855000211,circle,"(-480.0, -270.0)",0,1565.7430000137538,1565.724299987778,True,False
15,2,235.2831043000333,circle,"(-480.0, -270.0)",0,1580.1618000259623,1580.1430999999866,True,False
15,2,235.30160919995978,circle,"(-480.0, -270.0)",0,1598.666699952446,1598.6479999264702,True,False
15,2,235.31674469995778,circle,"(-480.0, -270.0)",0,1613.8021999504417,1613.783499924466,True,False
15,2,235.3329717000015,circle,"(-480.0, -270.0)",0,1630.0291999941692,1630.0104999681935,True,False
15,2,235.34969730000012,circle,"(-480.0, -270.0)",0,1646.7547999927774,1646.7360999668017,True,False
15,2,235.36567919992376,circle,"(-480.0, -270.0)",0,1662.7366999164224,1662.7179998904467,True,False
15,2,235.38317609997466,circle,"(-480.0, -270.0)",0,1680.2335999673232,1680.2148999413475,True,False
15,2,235.39910519996192,circle,"(-480.0, -270.0)",0,1696.1626999545842,1696.1439999286085,True,False
15,2,235.41630729997996,circle,"(-480.0, -270.0)",0,1713.3647999726236,1713.3460999466479,True,False
15,2,235.43211499997415,circle,"(-480.0, -270.0)",0,1729.1724999668077,1729.153799940832,True,False
15,2,235.45071410003584,circle,"(-480.0, -270.0)",0,1747.7716000285,1747.7529000025243,True,False
15,2,235.46509970002808,circle,"(-480.0, -270.0)",0,1762.157200020738,1762.1384999947622,True,False
15,2,235.48409569996875,circle,"(-480.0, -270.0)",0,1781.153199961409,1781.1344999354333,True,False
15,2,237.31616009993013,star,"(-480.0, 270.0)",251.035499968566,3613.217599922791,3613.1988998968154,False,True
15,3,237.71565110003576,circle,"(-480.0, -270.0)",250.91260008048266,4012.708600028418,399.4910001056269,True,False
15,3,237.73509410000406,circle,"(-480.0, -270.0)",0,4032.1515999967232,418.9340000739321,True,False
15,3,237.75055130000692,circle,"(-480.0, -270.0)",0,4047.60879999958,434.39120007678866,True,False
15,3,237.76545069995336,circle,"(-480.0, -270.0)",0,4062.5081999460235,449.2906000232324,True,False
15,3,237.78478310001083,circle,"(-480.0, -270.0)",0,4081.8406000034884,468.62300008069724,True,False
15,3,237.79845310002565,circle,"(-480.0, -270.0)",0,4095.510600018315,482.2930000955239,True,False
15,3,237.81675849994645,circle,"(-480.0, -270.0)",0,4113.815999939106,500.5984000163153,True,False
15,3,237.83436189999338,circle,"(-480.0, -270.0)",0,4131.419399986044,518.2018000632524,True,False
15,3,237.84887260000687,circle,"(-480.0, -270.0)",0,4145.930099999532,532.712500076741,True,False
15,3,237.86443910002708,circle,"(-480.0, -270.0)",0,4161.4966000197455,548.2790000969544,True,False
15,3,237.8816824000096,circle,"(-480.0, -270.0)",0,4178.739900002256,565.5223000794649,True,False
15,3,237.89770209998824,circle,"(-480.0, -270.0)",0,4194.759599980898,581.5420000581071,True,False
15,3,237.9151997999288,circle,"(-480.0, -270.0)",0,4212.257299921475,599.0396999986842,True,False
15,3,237.9307091999799,circle,"(-480.0, -270.0)",0,4227.7666999725625,614.5491000497714,True,False
15,3,237.94982320000418,circle,"(-480.0, -270.0)",0,4246.8806999968365,633.6631000740454,True,False
15,3,237.96430829993915,circle,"(-480.0, -270.0)",0,4261.365799931809,648.1482000090182,True,False
15,3,237.98410959995817,circle,"(-480.0, -270.0)",0,4281.167099950835,667.949500028044,True,False
15,3,237.99782889999915,circle,"(-480.0, -270.0)",0,4294.88639999181,681.6688000690192,True,False
15,3,238.01710679999087,circle,"(-480.0, -270.0)",0,4314.164299983531,700.9467000607401,True,False
15,3,238.03094670001883,circle,"(-480.0, -270.0)",0,4328.004200011492,714.7866000887007,True,False
15,3,238.04929340002127,circle,"(-480.0, -270.0)",0,4346.350900013931,733.13330009114,True,False
15,3,238.0643169999821,circle,"(-480.0, -270.0)",0,4361.374499974772,748.1569000519812,True,False
15,3,238.08207939995918,circle,"(-480.0, -270.0)",0,4379.136899951845,765.9193000290543,True,False
15,3,238.0978142999811,circle,"(-480.0, -270.0)",0,4394.871799973771,781.6542000509799,True,False
15,3,238.11553309997544,circle,"(-480.0, -270.0)",0,4412.590599968098,799.373000045307,True,False
15,3,238.13121170003433,circle,"(-480.0, -270.0)",0,4428.269200026989,815.0516001041979,True,False
15,3,238.1486767999595,circle,"(-480.0, -270.0)",0,4445.734299952164,832.5167000293732,True,False
15,3,238.16463619994465,circle,"(-480.0, -270.0)",0,4461.693699937314,848.4761000145227,True,False
15,3,238.18251630000304,circle,"(-480.0, -270.0)",0,4479.5737999957055,866.3562000729144,True,False
15,3,238.19904320000205,circle,"(-480.0, -270.0)",0,4496.100699994713,882.883100071922,True,False
15,3,238.21531300002243,circle,"(-480.0, -270.0)",0,4512.370500015095,899.1529000923038,True,False
15,3,238.2331881999271,circle,"(-480.0, -270.0)",0,4530.24569991976,917.0280999969691,True,False
15,3,238.2485193000175,circle,"(-480.0, -270.0)",0,4545.576800010167,932.3592000873759,True,False
15,3,238.2659568999661,circle,"(-480.0, -270.0)",0,4563.014399958774,949.7968000359833,True,False
15,3,238.28268730000127,circle,"(-480.0, -270.0)",0,4579.744799993932,966.5272000711411,True,False
15,3,238.29774930002168,circle,"(-480.0, -270.0)",0,4594.806800014339,981.5892000915483,True,False
15,3,238.3147852999391,circle,"(-480.0, -270.0)",0,4611.842799931765,998.6252000089735,True,False
15,3,238.3165861000307,star,"(-480.0, 270.0)",250.33380009699613,4613.643600023352,1000.4260001005605,True,False
15,3,238.33282380003948,star,"(-480.0, 270.0)",0,4629.881300032139,1016.6637001093477,True,False
15,3,238.34804760001134,star,"(-480.0, 270.0)",0,4645.105100004002,1031.8875000812113,True,False
15,3,238.3637753999792,star,"(-480.0, 270.0)",0,4660.832899971865,1047.615300049074,True,False
15,3,238.38195619999897,star,"(-480.0, 270.0)",0,4679.0136999916285,1065.7961000688374,True,False
15,3,238.39778849994764,star,"(-480.0, 270.0)",0,4694.8459999402985,1081.6284000175074,True,False
15,3,238.4180478999624,star,"(-480.0, 270.0)",0,4715.105399955064,1101.887800032273,True,False
15,3,238.43127519998234,star,"(-480.0, 270.0)",0,4728.332699974999,1115.1151000522077,True,False
15,3,238.44941080000717,star,"(-480.0, 270.0)",0,4746.468299999833,1133.250700077042,True,False
15,3,238.4642915999284,star,"(-480.0, 270.0)",0,4761.349099921063,1148.1314999982715,True,False
15,3,238.48123749997467,star,"(-480.0, 270.0)",0,4778.294999967329,1165.077400044538,True,False
15,3,238.4977685000049,star,"(-480.0, 270.0)",0,4794.825999997556,1181.608400074765,True,False
15,3,238.51501999993343,star,"(-480.0, 270.0)",0,4812.07749992609,1198.8599000032991,True,False
15,3,238.5310939999763,star,"(-480.0, 270.0)",0,4828.151499968953,1214.9339000461623,True,False
15,3,238.54830839997157,star,"(-480.0, 270.0)",0,4845.365899964236,1232.1483000414446,True,False
15,3,238.56393289996777,star,"(-480.0, 270.0)",0,4860.9903999604285,1247.7728000376374,True,False
15,3,238.58175399992615,star,"(-480.0, 270.0)",0,4878.811499918811,1265.59389999602,True,False
15,3,238.59941729996353,star,"(-480.0, 270.0)",0,4896.474799956195,1283.257200033404,True,False
15,3,238.61548799998127,star,"(-480.0, 270.0)",0,4912.54549997393,1299.3279000511393,True,False
15,3,238.63413140003104,star,"(-480.0, 270.0)",0,4931.188900023699,1317.9713001009077,True,False
15,3,238.64874859992415,star,"(-480.0, 270.0)",0,4945.806099916808,1332.5884999940172,True,False
15,3,238.66429899993818,star,"(-480.0, 270.0)",0,4961.356499930844,1348.1389000080526,True,False
15,3,238.6816603000043,star,"(-480.0, 270.0)",0,4978.717799996957,1365.500200074166,True,False
15,3,238.69758239993826,star,"(-480.0, 270.0)",0,4994.639899930917,1381.4223000081256,True,False
15,3,238.71474460000172,star,"(-480.0, 270.0)",0,5011.802099994384,1398.5845000715926,True,False
15,3,238.73099880001973,star,"(-480.0, 270.0)",0,5028.056300012395,1414.8387000896037,True,False
15,3,238.749235700001,star,"(-480.0, 270.0)",0,5046.29319999367,1433.0756000708789,True,False
15,3,238.7639796999283,star,"(-480.0, 270.0)",0,5061.037199920975,1447.8195999981835,True,False
15,3,238.78141619998496,star,"(-480.0, 270.0)",0,5078.473699977621,1465.2561000548303,True,False
15,3,238.7989272000268,star,"(-480.0, 270.0)",0,5095.984700019471,1482.7671000966802,True,False
15,3,238.81523970002308,star,"(-480.0, 270.0)",0,5112.297200015746,1499.079600092955,True,False
15,3,238.83221989998128,star,"(-480.0, 270.0)",0,5129.277399973944,1516.0598000511527,True,False
15,3,238.8489997999277,star,"(-480.0, 270.0)",0,5146.057299920358,1532.8396999975666,True,False
15,3,238.86688829993363,star,"(-480.0, 270.0)",0,5163.945799926296,1550.7282000035048,True,False
15,3,238.88158619997557,star,"(-480.0, 270.0)",0,5178.643699968234,1565.4261000454426,True,False
15,3,238.89743180002552,star,"(-480.0, 270.0)",0,5194.489300018176,1581.2717000953853,True,False
15,3,238.9146304000169,star,"(-480.0, 270.0)",0,5211.687900009565,1598.470300086774,True,False
15,3,238.93090489995666,star,"(-480.0, 270.0)",0,5227.96239994932,1614.7448000265285,True,False
15,3,238.94790899998043,star,"(-480.0, 270.0)",0,5244.9664999730885,1631.7489000502974,True,False
15,3,238.9642765999306,star,"(-480.0, 270.0)",0,5261.3340999232605,1648.1165000004694,True,False
15,3,238.98157369997352,star,"(-480.0, 270.0)",0,5278.631199966185,1665.4136000433937,True,False
15,3,238.99791849998292,star,"(-480.0, 270.0)",0,5294.975999975577,1681.7584000527859,True,False
15,3,239.0148288999917,star,"(-480.0, 270.0)",0,5311.88639998436,1698.6688000615686,True,False
15,3,239.03324230003636,star,"(-480.0, 270.0)",0,5330.2998000290245,1717.0822001062334,True,False
15,3,239.0480438999366,star,"(-480.0, 270.0)",0,5345.101399929263,1731.8838000064716,True,False
15,3,239.0669006999815,star,"(-480.0, 270.0)",0,5363.9581999741495,1750.7406000513583,True,False
15,3,239.0816534999758,star,"(-480.0, 270.0)",0,5378.710999968462,1765.4934000456706,True,False
15,3,239.0978066000389,star,"(-480.0, 270.0)",0,5394.864100031555,1781.6465001087636,True,False
15,3,243.54635800002143,t,"(480.0, 270.0)",266.3525000680238,9843.415500014089,6230.197900091298,False,True
15,4,246.21511969994754,cross,"(480.0, -270.0)",267.9471999872476,12512.177199940197,2668.761699926108,False,True
