trial_num,selection_num,timestamp,shape,position,fixation_duration_ms,rt_from_trial_start_ms,rt_from_previous_selection_ms,queued_selection,was_executed
13,1,185.8831196000101,circle,"(-480.0, -270.0)",0,0.011599971912801266,0.011599971912801266,False,True
14,1,193.19826040009502,circle,"(-480.0, -270.0)",0,0.018300022929906845,0.018300022929906845,False,True
14,2,196.3009608000284,cross,"(480.0, -270.0)",272.51149993389845,3102.718699956313,3102.700399933383,False,True
14,3,196.5640966000501,cross,"(480.0, -270.0)",259.63270000647753,3365.8544999780133,263.13580002170056,True,False
14,3,196.5885450000642,cross,"(480.0, -270.0)",0,3390.3028999920934,287.58420003578067,True,False
14,3,196.5971981000621,cross,"(480.0, -270.0)",0,3398.955999989994,296.2373000336811,True,False
14,3,196.6126901000971,cross,"(480.0, -270.0)",0,3414.448000025004,311.7293000686914,True,False
14,3,196.62967980001122,cross,"(480.0, -270.0)",0,3431.4376999391243,328.7189999828115,True,False
14,3,196.64609829999972,cross,"(480.0, -270.0)",0,3447.856199927628,345.13749997131526,True,False
14,3,196.66275400004815,cross,"(480.0, -270.0)",0,3464.51189997606,361.793200019747,True,False
14,3,196.67789960000664,cross,"(480.0, -270.0)",0,3479.6574999345466,376.9387999782339,True,False
14,3,196.69589420000557,cross,"(480.0, -270.0)",0,3497.6520999334753,394.9333999771625,True,False
14,3,196.7119617999997,cross,"(480.0, -270.0)",0,3513.7196999276057,411.0009999712929,True,False
14,3,196.72853260010015,cross,"(480.0, -270.0)",0,3530.290500028059,427.5718000717461,True,False
14,3,196.74513910000678,cross,"(480.0, -270.0)",0,3546.896999934688,444.17829997837543,True,False
14,3,196.76204210007563,cross,"(480.0, -270.0)",0,3563.800000003539,461.08130004722625,True,False
14,3,196.77838370006066,cross,"(480.0, -270.0)",0,3580.141599988565,477.4229000322521,True,False
14,3,196.7966220000526,cross,"(480.0, -270.0)",0,3598.3798999805003,495.66120002418756,True,False
14,3,196.81267220003065,cross,"(480.0, -270.0)",0,3614.430099958554,511.71140000224113,True,False
14,3,196.83004290005192,cross,"(480.0, -270.0)",0,3631.8007999798283,529.0821000235155,True,False
14,3,196.84616150008515,cross,"(480.0, -270.0)",0,3647.919400013052,545.2007000567392,True,False
14,3,196.86288340005558,cross,"(480.0, -270.0)",0,3664.6412999834865,561.9226000271738,True,False
14,3,196.87924300006125,cross,"(480.0, -270.0)",0,3681.000899989158,578.2822000328451,True,False
14,3,196.89624850009568,cross,"(480.0, -270.0)",0,3698.006400023587,595.2877000672743,True,False
14,3,196.9129963000305,cross,"(480.0, -270.0)",0,3714.7541999584064,612.0355000020936,True,False
14,3,196.92915640003048,cross,"(480.0, -270.0)",0,3730.9142999583855,628.1956000020728,True,False
14,3,196.9466993000824,cross,"(480.0, -270.0)",0,3748.457200010307,645.7385000539944,True,False
14,3,196.9623238000786,cross,"(480.0, -270.0)",0,3764.0817000065,661.3630000501871,True,False
14,3,196.978497800068,cross,"(480.0, -270.0)",0,3780.255699995905,677.5370000395924,True,False
14,3,196.99463220010512,cross,"(480.0, -270.0)",0,3796.3901000330225,693.6714000767097,True,False
14,3,197.0114184000995,cross,"(480.0, -270.0)",0,3813.1763000274077,710.4576000710949,True,False
14,3,197.02841600007378,cross,"(480.0, -270.0)",0,3830.1739000016823,727.4552000453696,True,False
14,3,197.0448779000435,cross,"(480.0, -270.0)",0,3846.635799971409,743.9171000150964,True,False
14,3,197.06163190002553,cross,"(480.0, -270.0)",0,3863.3897999534383,760.6710999971256,True,False
14,3,197.0792057000799,cross,"(480.0, -270.0)",0,3880.963600007817,778.2449000515044,True,False
14,3,197.0959520000033,cross,"(480.0, -270.0)",0,3897.7098999312147,794.991199974902,True,False
14,3,197.11253890010994,cross,"(480.0, -270.0)",0,3914.296800037846,811.5781000815332,True,False
14,3,197.12926030007657,cross,"(480.0, -270.0)",0,3931.0182000044733,828.2995000481606,True,False
14,3,197.1458544000052,cross,"(480.0, -270.0)",0,3947.6122999330983,844.8935999767855,True,False
14,3,197.16261230001692,cross,"(480.0, -270.0)",0,3964.370199944824,861.6514999885112,True,False
14,3,197.17791980004404,cross,"(480.0, -270.0)",0,3979.677699971944,876.9590000156313,True,False
14,3,197.1954512000084,cross,"(480.0, -270.0)",0,3997.209099936299,894.4903999799863,True,False
14,3,197.2116775000468,cross,"(480.0, -270.0)",0,4013.4353999746963,910.7167000183836,True,False
14,3,197.2284892000025,cross,"(480.0, -270.0)",0,4030.2470999304205,927.5283999741077,True,False
14,3,197.24506460002158,cross,"(480.0, -270.0)",0,4046.822499949485,944.1037999931723,True,False
14,3,197.2619330000598,cross,"(480.0, -270.0)",0,4063.690899987705,960.9722000313923,True,False
14,3,197.27947160007898,cross,"(480.0, -270.0)",0,4081.2295000068843,978.5108000505716,True,False
14,3,197.29585440002847,cross,"(480.0, -270.0)",0,4097.612299956381,994.8936000000685,True,False
14,3,197.31261300004553,cross,"(480.0, -270.0)",0,4114.370899973437,1011.6522000171244,True,False
14,3,197.3291747000767,cross,"(480.0, -270.0)",0,4130.9326000045985,1028.2139000482857,True,False
14,3,197.34593310009222,cross,"(480.0, -270.0)",0,4147.6910000201315,1044.9723000638187,True,False
14,3,197.3623923000414,cross,"(480.0, -270.0)",0,4164.150199969299,1061.4315000129864,True,False
14,3,197.3791068000719,cross,"(480.0, -270.0)",0,4180.864699999802,1078.146000043489,True,False
14,3,197.39575540006626,cross,"(480.0, -270.0)",0,4197.513299994171,1094.794600037858,True,False
14,3,197.41247760003898,cross,"(480.0, -270.0)",0,4214.23549996689,1111.5168000105768,True,False
14,3,197.42778320005164,cross,"(480.0, -270.0)",0,4229.541099979542,1126.8224000232294,True,False
14,3,197.4451221000636,cross,"(480.0, -270.0)",0,4246.879999991506,1144.1613000351936,True,False
14,3,197.461464800057,cross,"(480.0, -270.0)",0,4263.222699984908,1160.5040000285953,True,False
14,3,197.47806110000238,cross,"(480.0, -270.0)",0,4279.818999930285,1177.1002999739721,True,False
14,3,197.49506580003072,cross,"(480.0, -270.0)",0,4296.8236999586225,1194.1050000023097,True,False
14,3,197.51179600006435,cross,"(480.0, -270.0)",0,4313.553899992257,1210.8352000359446,True,False
14,3,197.52921240008436,cross,"(480.0, -270.0)",0,4330.970300012268,1228.2516000559554,True,False
14,3,197.54619270004332,cross,"(480.0, -270.0)",0,4347.950599971227,1245.2319000149146,True,False
14,3,197.56234500010032,cross,"(480.0, -270.0)",0,4364.102900028229,1261.384200071916,True,False
14,3,197.5790676000761,cross,"(480.0, -270.0)",0,4380.8255000039935,1278.1068000476807,True,False
14,3,197.59571380005218,cross,"(480.0, -270.0)",0,4397.471699980088,1294.7530000237748,True,False
14,3,197.61268580006436,cross,"(480.0, -270.0)",0,4414.443699992262,1311.725000035949,True,False
14,3,197.62902480002958,cross,"(480.0, -270.0)",0,4430.78269995749,1328.0640000011772,True,False
14,3,197.64570760005154,cross,"(480.0, -270.0)",0,4447.465499979444,1344.746800023131,True,False
14,3,197.66267790005077,cross,"(480.0, -270.0)",0,4464.4357999786735,1361.7171000223607,True,False
14,3,197.67798660008702,cross,"(480.0, -270.0)",0,4479.744500014931,1377.0258000586182,True,False
14,3,197.69517840002663,cross,"(480.0, -270.0)",0,4496.936299954541,1394.2175999982283,True,False
14,3,197.71123930008616,cross,"(480.0, -270.0)",0,4512.99720001407,1410.278500057757,True,False
14,3,197.7284595000092,cross,"(480.0, -270.0)",0,4530.217399937101,1427.498699980788,True,False
14,3,197.7447091001086,cross,"(480.0, -270.0)",0,4546.4670000365,1443.7483000801876,True,False
14,3,197.76169230008963,cross,"(480.0, -270.0)",0,4563.450200017542,1460.7315000612289,True,False
14,3,197.77846520009916,cross,"(480.0, -270.0)",0,4580.223100027069,1477.5044000707567,True,False
14,3,197.79488040006254,cross,"(480.0, -270.0)",0,4596.638299990445,1493.9196000341326,True,False
14,3,197.8125564000802,cross,"(480.0, -270.0)",0,4614.314300008118,1511.5956000518054,True,False
14,3,197.8291395000415,cross,"(480.0, -270.0)",0,4630.897399969399,1528.1787000130862,True,False
14,3,197.8455606000498,cross,"(480.0, -270.0)",0,4647.3184999777,1544.5998000213876,True,False
14,3,197.86226510000415,cross,"(480.0, -270.0)",0,4664.022999932058,1561.3042999757454,True,False
14,3,197.87898010003846,cross,"(480.0, -270.0)",0,4680.737999966368,1578.0193000100553,True,False
14,3,197.89591980003752,cross,"(480.0, -270.0)",0,4697.677699965425,1594.959000009112,True,False
14,3,197.91153040004428,cross,"(480.0, -270.0)",0,4713.288299972191,1610.5696000158787,True,False
14,3,197.9279478000244,cross,"(480.0, -270.0)",0,4729.705699952319,1626.9869999960065,True,False
14,3,197.94500510010403,cross,"(480.0, -270.0)",0,4746.763000031933,1644.0443000756204,True,False
14,3,197.96148920000996,cross,"(480.0, -270.0)",0,4763.247099937871,1660.5283999815583,True,False
14,3,197.97808140004054,cross,"(480.0, -270.0)",0,4779.839299968444,1677.120600012131,True,False
14,3,197.99461250007153,cross,"(480.0, -270.0)",0,4796.370399999432,1693.6517000431195,True,False
14,3,198.01143630000297,cross,"(480.0, -270.0)",0,4813.1941999308765,1710.4754999745637,True,False
14,3,198.02899630006868,cross,"(480.0, -270.0)",0,4830.754199996591,1728.0355000402778,True,False
14,3,198.0458665000042,cross,"(480.0, -270.0)",0,4847.624399932101,1744.9056999757886,True,False
14,3,198.0621546000475,cross,"(480.0, -270.0)",0,4863.912499975413,1761.1938000191003,True,False
14,3,198.07895920006558,cross,"(480.0, -270.0)",0,4880.71709999349,1777.998400037177,True,False
14,3,198.0954848000547,cross,"(480.0, -270.0)",0,4897.242699982598,1794.5240000262856,True,False
14,3,199.16327090002596,star,"(-480.0, 270.0)",268.441200023517,5965.0287999538705,2862.3100999975577,False,True
14,4,201.96050150005613,t,"(480.0, 270.0)",266.37069997377694,8762.259399984032,2797.2306000301614,False,True
15,1,206.0777967000613,circle,"(-480.0, -270.0)",0,0.012599979527294636,0.012599979527294636,False,True
15,2,206.34292250010185,star,"(-480.0, 270.0)",258.69760010391474,265.1384000200778,265.12580004055053,True,False
15,2,206.36308560008183,star,"(-480.0, 270.0)",0,285.3015000000596,285.2889000205323,True,False
15,2,206.3802739001112,star,"(-480.0, 270.0)",0,302.48980002943426,302.47720004990697,True,False
15,2,206.39218880003318,star,"(-480.0, 270.0)",0,314.4046999514103,314.392099971883,True,False
15,2,206.40881150006317,star,"(-480.0, 270.0)",0,331.0273999813944,331.0148000018671,True,False
15,2,206.42536930006463,star,"(-480.0, 270.0)",0,347.5851999828592,347.5726000033319,True,False
15,2,206.44267730007414,star,"(-480.0, 270.0)",0,364.89319999236614,364.88060001283884,True,False
15,2,206.45871420006733,star,"(-480.0, 270.0)",0,380.93009998556226,380.91750000603497,True,False
15,2,206.47514070000034,star,"(-480.0, 270.0)",0,397.35659991856664,397.34399993903935,True,False
15,2,206.4919006000273,star,"(-480.0, 270.0)",0,414.11649994552135,414.10389996599406,True,False
15,2,206.50961830001324,star,"(-480.0, 270.0)",0,431.83419993147254,431.82159995194525,True,False
15,2,206.52625200001057,star,"(-480.0, 270.0)",0,448.46789992880076,448.45529994927347,True,False
15,2,206.54293180000968,star,"(-480.0, 270.0)",0,465.14769992791116,465.13509994838387,True,False
15,2,206.55966510006692,star,"(-480.0, 270.0)",0,481.880999985151,481.8684000056237,True,False
15,2,206.57616970001254,star,"(-480.0, 270.0)",0,498.3855999307707,498.3729999512434,True,False
15,2,206.59276440006215,star,"(-480.0, 270.0)",0,514.9802999803796,514.9677000008523,True,False
15,2,206.60942950006574,star,"(-480.0, 270.0)",0,531.6453999839723,531.632800004445,True,False
15,2,206.6260833000997,star,"(-480.0, 270.0)",0,548.2992000179365,548.2866000384092,True,False
15,2,206.64191260002553,star,"(-480.0, 270.0)",0,564.128499943763,564.1158999642357,True,False
15,2,206.66024200001266,star,"(-480.0, 270.0)",0,582.4578999308869,582.4452999513596,True,False
15,2,206.6755145000061,star,"(-480.0, 270.0)",0,597.7303999243304,597.7177999448031,True,False
15,2,206.69182420009747,star,"(-480.0, 270.0)",0,614.0401000156999,614.0275000361726,True,False
15,2,206.70853340008762,star,"(-480.0, 270.0)",0,630.7493000058457,630.7367000263184,True,False
15,2,206.725109500112,star,"(-480.0, 270.0)",0,647.3254000302404,647.3128000507131,True,False
15,2,206.74271330004558,star,"(-480.0, 270.0)",0,664.9291999638081,664.9165999842808,True,False
15,2,206.75925300002564,star,"(-480.0, 270.0)",0,681.4688999438658,681.4562999643385,True,False
15,2,206.7763358000666,star,"(-480.0, 270.0)",0,698.5516999848187,698.5391000052914,True,False
15,2,206.79276550002396,star,"(-480.0, 270.0)",0,714.9813999421895,714.9687999626622,True,False
15,2,206.80930750002153,star,"(-480.0, 270.0)",0,731.5233999397606,731.5107999602333,True,False
15,2,206.8261763000628,star,"(-480.0, 270.0)",0,748.3921999810264,748.379600001499,True,False
15,2,206.8428054000251,star,"(-480.0, 270.0)",0,765.0212999433279,765.0086999638006,True,False
15,2,206.85957690002397,star,"(-480.0, 270.0)",0,781.7927999421954,781.7801999626681,True,False
15,2,206.87482240004465,star,"(-480.0, 270.0)",0,797.0382999628782,797.0256999833509,True,False
15,2,206.89328040007968,star,"(-480.0, 270.0)",0,815.4962999979034,815.4837000183761,True,False
15,2,206.90853130002506,star,"(-480.0, 270.0)",0,830.7471999432892,830.7345999637619,True,False
15,2,206.9252250000136,star,"(-480.0, 270.0)",0,847.4408999318257,847.4282999522984,True,False
15,2,206.92725639999844,circle,"(-480.0, -270.0)",265.0730999885127,849.4722999166697,849.4596999371424,True,False
15,2,206.94468630000483,circle,"(-480.0, -270.0)",0,866.9021999230608,866.8895999435335,True,False
15,2,206.9585314000724,circle,"(-480.0, -270.0)",0,880.7472999906167,880.7347000110894,True,False
15,2,206.9751051000785,circle,"(-480.0, -270.0)",0,897.3209999967366,897.3084000172094,True,False
15,2,206.99285860010423,circle,"(-480.0, -270.0)",0,915.074500022456,915.0619000429288,True,False
15,2,207.00940590002574,circle,"(-480.0, -270.0)",0,931.6217999439687,931.6091999644414,True,False
15,2,207.02604670007713,circle,"(-480.0, -270.0)",0,948.2625999953598,948.2500000158325,True,False
15,2,207.04263470007572,circle,"(-480.0, -270.0)",0,964.8505999939516,964.8380000144243,True,False
15,2,207.0593857000349,circle,"(-480.0, -270.0)",0,981.6015999531373,981.58899997361,True,False
15,2,207.07589730003383,circle,"(-480.0, -270.0)",0,998.1131999520585,998.1005999725312,True,False
15,2,207.09377750009298,circle,"(-480.0, -270.0)",0,1015.9934000112116,1015.9808000316843,True,False
15,2,207.1083311000839,circle,"(-480.0, -270.0)",0,1030.547000002116,1030.5344000225887,True,False
15,2,207.12525680009276,circle,"(-480.0, -270.0)",0,1047.4727000109851,1047.4601000314578,True,False
15,2,207.14240770007018,circle,"(-480.0, -270.0)",0,1064.6235999884084,1064.611000008881,True,False
15,2,207.1589643000625,circle,"(-480.0, -270.0)",0,1081.1801999807358,1081.1676000012085,True,False
15,2,207.1759849000955,circle,"(-480.0, -270.0)",0,1098.2008000137284,1098.1882000342011,True,False
15,2,207.1928295000689,circle,"(-480.0, -270.0)",0,1115.0453999871388,1115.0328000076115,True,False
15,2,207.210292300093,circle,"(-480.0, -270.0)",0,1132.508200011216,1132.4956000316888,True,False
15,2,207.22722220001742,circle,"(-480.0, -270.0)",0,1149.4380999356508,1149.4254999561235,True,False
15,2,207.24366870010272,circle,"(-480.0, -270.0)",0,1165.884600020945,1165.8720000414178,True,False
15,2,207.25930440006778,circle,"(-480.0, -270.0)",0,1181.5202999860048,1181.5077000064775,True,False
15,2,207.27613690006547,circle,"(-480.0, -270.0)",0,1198.3527999836951,1198.3402000041679,True,False
15,2,207.292620500084,circle,"(-480.0, -270.0)",0,1214.8364000022411,1214.8238000227138,True,False
15,2,207.30918240000028,circle,"(-480.0, -270.0)",0,1231.39829991851,1231.3856999389827,True,False
15,2,207.3258723000763,circle,"(-480.0, -270.0)",0,1248.0881999945268,1248.0756000149995,True,False
15,2,207.3425940000452,circle,"(-480.0, -270.0)",0,1264.8098999634385,1264.7972999839112,True,False
15,2,207.35804220009595,circle,"(-480.0, -270.0)",0,1280.25810001418,1280.2455000346527,True,False
15,2,207.37609020003583,circle,"(-480.0, -270.0)",0,1298.3060999540612,1298.293499974534,True,False
15,2,207.3914473000914,circle,"(-480.0, -270.0)",0,1313.6632000096142,1313.650600030087,True,False
15,2,207.40799259999767,circle,"(-480.0, -270.0)",0,1330.2084999158978,1330.1958999363706,True,False
15,2,207.4250708000036,circle,"(-480.0, -270.0)",0,1347.286699921824,1347.2740999422967,True,False
15,2,207.44189880008344,circle,"(-480.0, -270.0)",0,1364.1147000016645,1364.1021000221372,True,False
15,2,207.45924740005285,circle,"(-480.0, -270.0)",0,1381.4632999710739,1381.4506999915466,True,False
15,2,207.47590710001532,circle,"(-480.0, -270.0)",0,1398.1229999335483,1398.110399954021,True,False
15,2,207.49276430008467,circle,"(-480.0, -270.0)",0,1414.9802000029013,1414.967600023374,True,False
15,2,207.50928380002733,circle,"(-480.0, -270.0)",0,1431.4996999455616,1431.4870999660343,True,False
15,2,207.52567740005907,circle,"(-480.0, -270.0)",0,1447.893299977295,1447.8806999977678,True,False
15,2,207.54245170007925,circle,"(-480.0, -270.0)",0,1464.6675999974832,1464.655000017956,True,False
15,2,207.55902810010593,circle,"(-480.0, -270.0)",0,1481.2440000241622,1481.231400044635,True,False
15,2,207.5745546000544,circle,"(-480.0, -270.0)",0,1496.7704999726266,1496.7578999930993,True,False
15,2,207.5926556000486,circle,"(-480.0, -270.0)",0,1514.87149996683,1514.8588999873027,True,False
15,2,207.60793950001244,circle,"(-480.0, -270.0)",0,1530.1553999306634,1530.142799951136,True,False
15,2,207.62473810010124,circle,"(-480.0, -270.0)",0,1546.9540000194684,1546.941400039941,True,False
15,2,207.64177129999734,circle,"(-480.0, -270.0)",0,1563.987199915573,1563.9745999360457,True,False
15,2,207.65835440007504,circle,"(-480.0, -270.0)",0,1580.5702999932691,1580.5577000137419,True,False
15,2,207.6750240001129,circle,"(-480.0, -270.0)",0,1597.239900031127,1597.2273000515997,True,False
15,2,207.69166220002808,circle,"(-480.0, -270.0)",0,1613.8780999463052,1613.8654999667779,True,False
15,2,207.70938660006505,circle,"(-480.0, -270.0)",0,1631.6024999832734,1631.5899000037462,True,False
15,2,207.72573160007596,circle,"(-480.0, -270.0)",0,1647.9474999941885,1647.9349000146613,True,False
15,2,207.74276390008163,circle,"(-480.0, -270.0)",0,1664.9797999998555,1664.9672000203282,True,False
15,2,207.7591160000302,circle,"(-480.0, -270.0)",0,1681.3318999484181,1681.3192999688908,True,False
15,2,207.7756905000424,circle,"(-480.0, -270.0)",0,1697.9063999606296,1697.8937999811023,True,False
15,2,207.79257380007766,circle,"(-480.0, -270.0)",0,1714.7896999958903,1714.777100016363,True,False
15,2,207.80898500001058,circle,"(-480.0, -270.0)",0,1731.2008999288082,1731.188299949281,True,False
15,2,207.8259890000336,circle,"(-480.0, -270.0)",0,1748.2048999518156,1748.1922999722883,True,False
15,2,207.84099710010923,circle,"(-480.0, -270.0)",0,1763.2130000274628,1763.2004000479355,True,False
15,2,207.8581409000326,circle,"(-480.0, -270.0)",0,1780.3567999508232,1780.344199971296,True,False
15,2,207.87462760007475,circle,"(-480.0, -270.0)",0,1796.843499992974,1796.8309000134468,True,False
15,2,209.2735977000557,cross,"(480.0, -270.0)",265.20759996492416,3195.813599973917,3195.8009999943897,False,True
15,3,209.541772400029,cross,"(480.0, -270.0)",257.2986999293789,3463.988299947232,268.174699973315,True,False
15,3,209.56089730001986,cross,"(480.0, -270.0)",0,3483.1131999380887,287.29959996417165,True,False
15,3,209.57442390010692,cross,"(480.0, -270.0)",0,3496.63980002515,300.8262000512332,True,False
15,3,209.59182980004698,cross,"(480.0, -270.0)",0,3514.0456999652088,318.23209999129176,True,False
15,3,209.6085096000461,cross,"(480.0, -270.0)",0,3530.725499964319,334.91189999040216,True,False
15,3,209.62504280009307,cross,"(480.0, -270.0)",0,3547.258700011298,351.44510003738105,True,False
15,3,209.64195870002732,cross,"(480.0, -270.0)",0,3564.174599945545,368.3609999716282,True,False
15,3,209.65843050007243,cross,"(480.0, -270.0)",0,3580.6463999906555,384.8328000167385,True,False
15,3,209.67495840007905,cross,"(480.0, -270.0)",0,3597.1742999972776,401.36070002336055,True,False
15,3,209.69207450002432,cross,"(480.0, -270.0)",0,3614.290399942547,418.4767999686301,True,False
15,3,209.70860000001267,cross,"(480.0, -270.0)",0,3630.8158999308944,435.00229995697737,True,False
15,3,209.7249884000048,cross,"(480.0, -270.0)",0,3647.2042999230325,451.3906999491155,True,False
15,3,209.74144000001252,cross,"(480.0, -270.0)",0,3663.6558999307454,467.84229995682836,True,False
15,3,209.75765320006758,cross,"(480.0, -270.0)",0,3679.869099985808,484.0555000118911,True,False
15,3,209.7741990000941,cross,"(480.0, -270.0)",0,3696.4149000123143,500.6013000383973,True,False
15,3,209.7910984000191,cross,"(480.0, -270.0)",0,3713.3142999373376,517.5006999634206,True,False
15,3,209.80777650000528,cross,"(480.0, -270.0)",0,3729.9923999235034,534.1787999495864,True,False
15,3,209.82419180008583,cross,"(480.0, -270.0)",0,3746.407700004056,550.5941000301391,True,False
15,3,209.84159130009357,cross,"(480.0, -270.0)",0,3763.8072000117972,567.9936000378802,True,False
15,3,209.85834510007408,cross,"(480.0, -270.0)",0,3780.5609999923036,584.7474000183865,True,False
15,3,209.87490270007402,cross,"(480.0, -270.0)",0,3797.1185999922454,601.3050000183284,True,False
15,3,209.891781500075,cross,"(480.0, -270.0)",0,3813.997399993241,618.1838000193238,True,False
15,3,209.9082104000263,cross,"(480.0, -270.0)",0,3830.42629994452,634.612699970603,True,False
15,3,209.9248920000391,cross,"(480.0, -270.0)",0,3847.1078999573365,651.2942999834195,True,False
15,3,209.94168220006395,cross,"(480.0, -270.0)",0,3863.8980999821797,668.0845000082627,True,False
15,3,209.9584390000673,cross,"(480.0, -270.0)",0,3880.6548999855295,684.8413000116125,True,False
15,3,209.97512260009535,cross,"(480.0, -270.0)",0,3897.338500013575,701.524900039658,True,False
15,3,209.99126580008306,cross,"(480.0, -270.0)",0,3913.4817000012845,717.6681000273675,True,False
15,3,210.00751460005995,cross,"(480.0, -270.0)",0,3929.7304999781772,733.9169000042602,True,False
15,3,210.02391320001334,cross,"(480.0, -270.0)",0,3946.129099931568,750.3154999576509,True,False
15,3,210.04075980000198,cross,"(480.0, -270.0)",0,3962.9756999202073,767.1620999462903,True,False
15,3,210.05751010007225,cross,"(480.0, -270.0)",0,3979.725999990478,783.9124000165612,True,False
15,3,210.07418370002415,cross,"(480.0, -270.0)",0,3996.3995999423787,800.5859999684617,True,False
15,3,210.09180320007727,cross,"(480.0, -270.0)",0,4014.019099995494,818.2055000215769,True,False
15,3,210.10843630007003,cross,"(480.0, -270.0)",0,4030.6521999882534,834.8386000143364,True,False
15,3,210.12510750000365,cross,"(480.0, -270.0)",0,4047.323399921879,851.5097999479622,True,False
15,3,210.14195650001056,cross,"(480.0, -270.0)",0,4064.1723999287933,868.3587999548763,True,False
15,3,210.15825310000218,cross,"(480.0, -270.0)",0,4080.468999920413,884.6553999464959,True,False
15,3,210.1750131000299,cross,"(480.0, -270.0)",0,4097.228999948129,901.415399974212,True,False
15,3,210.19165600009728,cross,"(480.0, -270.0)",0,4113.871900015511,918.0583000415936,True,False
15,3,210.20934960001614,cross,"(480.0, -270.0)",0,4131.565499934368,935.7518999604508,True,False
15,3,210.224096900085,cross,"(480.0, -270.0)",0,4146.312800003216,950.4992000292987,True,False
15,3,210.24113060010131,cross,"(480.0, -270.0)",0,4163.346500019543,967.5329000456259,True,False
15,3,210.25754900008906,cross,"(480.0, -270.0)",0,4179.764900007285,983.9513000333682,True,False
15,3,210.27443320001476,cross,"(480.0, -270.0)",0,4196.6490999329835,1000.8354999590665,True,False
15,3,210.29105040000286,cross,"(480.0, -270.0)",0,4213.266299921088,1017.4526999471709,True,False
15,3,210.30847950000316,cross,"(480.0, -270.0)",0,4230.695399921387,1034.8817999474704,True,False
15,3,210.32509060006123,cross,"(480.0, -270.0)",0,4247.306499979459,1051.4929000055417,True,False
15,3,210.3419705000706,cross,"(480.0, -270.0)",0,4264.18639998883,1068.372800014913,True,False
15,3,210.35817470005713,cross,"(480.0, -270.0)",0,4280.390599975362,1084.5770000014454,True,False
15,3,210.37478280009236,cross,"(480.0, -270.0)",0,4296.99870001059,1101.1851000366732,True,False
15,3,210.39136750006583,cross,"(480.0, -270.0)",0,4313.583399984054,1117.7698000101373,True,False
15,3,210.40812120004557,cross,"(480.0, -270.0)",0,4330.337099963799,1134.523499989882,True,False
15,3,210.42524680006318,cross,"(480.0, -270.0)",0,4347.462699981406,1151.6491000074893,True,False
15,3,210.4406169001013,cross,"(480.0, -270.0)",0,4362.832800019532,1167.0192000456154,True,False
15,3,210.45709820010234,cross,"(480.0, -270.0)",0,4379.314100020565,1183.500500046648,True,False
15,3,210.47403810010292,cross,"(480.0, -270.0)",0,4396.254000021145,1200.4404000472277,True,False
15,3,210.4907058000099,cross,"(480.0, -270.0)",0,4412.92169992812,1217.1080999542028,True,False
15,3,210.507537700003,cross,"(480.0, -270.0)",0,4429.753599921241,1233.9399999473244,True,False
15,3,210.5245244000107,cross,"(480.0, -270.0)",0,4446.740299928933,1250.9266999550164,True,False
15,3,210.54183870006818,cross,"(480.0, -270.0)",0,4464.054599986412,1268.2410000124946,True,False
15,3,210.55813070002478,cross,"(480.0, -270.0)",0,4480.346599943005,1284.5329999690875,True,False
15,3,210.57498190004844,cross,"(480.0, -270.0)",0,4497.197799966671,1301.3841999927536,True,False
15,3,210.5922432000516,cross,"(480.0, -270.0)",0,4514.459099969827,1318.6454999959096,True,False
15,3,210.6085435000714,cross,"(480.0, -270.0)",0,4530.75939998962,1334.9458000157028,True,False
15,3,210.62485000002198,cross,"(480.0, -270.0)",0,4547.065899940208,1351.2522999662906,True,False
15,3,210.64156480005477,cross,"(480.0, -270.0)",0,4563.780699972995,1367.9670999990776,True,False
15,3,210.65851200011093,cross,"(480.0, -270.0)",0,4580.72790002916,1384.914300055243,True,False
15,3,210.6751114000799,cross,"(480.0, -270.0)",0,4597.327299998142,1401.5137000242248,True,False
15,3,210.69052360008936,cross,"(480.0, -270.0)",0,4612.739500007592,1416.9259000336751,True,False
15,3,210.7075014000293,cross,"(480.0, -270.0)",0,4629.717299947515,1433.9036999735981,True,False
15,3,210.7238803000655,cross,"(480.0, -270.0)",0,4646.096199983731,1450.282600009814,True,False
15,3,210.74076910002623,cross,"(480.0, -270.0)",0,4662.984999944456,1467.171399970539,True,False
15,3,210.75763430004008,cross,"(480.0, -270.0)",0,4679.8501999583095,1484.0365999843925,True,False
15,3,210.7742419000715,cross,"(480.0, -270.0)",0,4696.45779998973,1500.644200015813,True,False
15,3,210.7913502000738,cross,"(480.0, -270.0)",0,4713.566099992022,1517.752500018105,True,False
15,3,210.80802810005844,cross,"(480.0, -270.0)",0,4730.243999976665,1534.4304000027478,True,False
15,3,210.82465230009984,cross,"(480.0, -270.0)",0,4746.868200018071,1551.0546000441536,True,False
15,3,210.84126330004074,cross,"(480.0, -270.0)",0,4763.479199958965,1567.6655999850482,True,False
15,3,210.85797240003012,cross,"(480.0, -270.0)",0,4780.18829994835,1584.3746999744326,True,False
15,3,210.87456780008506,cross,"(480.0, -270.0)",0,4796.783700003289,1600.9701000293717,True,False
15,3,210.89179970009718,cross,"(480.0, -270.0)",0,4814.015600015409,1618.2020000414923,True,False
15,3,210.90707050007768,cross,"(480.0, -270.0)",0,4829.286399995908,1633.4728000219911,True,False
15,3,210.92387610010337,cross,"(480.0, -270.0)",0,4846.092000021599,1650.2784000476822,True,False
15,3,210.94043330010027,cross,"(480.0, -270.0)",0,4862.649200018495,1666.8356000445783,True,False
15,3,210.95737540000118,cross,"(480.0, -270.0)",0,4879.5912999194115,1683.7776999454945,True,False
15,3,210.97390960005578,cross,"(480.0, -270.0)",0,4896.125499974005,1700.311900000088,True,False
15,3,210.99080770008732,cross,"(480.0, -270.0)",0,4913.023600005545,1717.2100000316277,True,False
15,3,211.0080275000073,cross,"(480.0, -270.0)",0,4930.24339992553,1734.429799951613,True,False
15,3,211.02464770001825,cross,"(480.0, -270.0)",0,4946.863599936478,1751.0499999625608,True,False
15,3,211.04137099999934,cross,"(480.0, -270.0)",0,4963.586899917573,1767.7732999436557,True,False
15,3,211.05795870011207,cross,"(480.0, -270.0)",0,4980.174600030296,1784.3610000563785,True,False
15,3,211.45896710001398,star,"(-480.0, 270.0)",251.76979997195303,5381.182999932207,2185.36939995829,False,True
15,4,214.75679900008254,t,"(480.0, 270.0)",251.30670005455613,8679.014900000766,3297.8319000685588,False,True
16,1,218.8732738000108,circle,"(-480.0, -270.0)",0,0.01109996810555458,0.01109996810555458,False,True
16,2,219.32182000007015,cross,"(480.0, -270.0)",266.28350000828505,448.55730002745986,448.5462000593543,True,False
16,2,219.34140560007654,cross,"(480.0, -270.0)",0,468.14290003385395,468.1318000657484,True,False
16,2,219.35513920011,cross,"(480.0, -270.0)",0,481.8765000673011,481.86540009919554,True,False
16,2,219.37182120000944,cross,"(480.0, -270.0)",0,498.55849996674806,498.5473999986425,True,False
16,2,219.38856980006676,cross,"(480.0, -270.0)",0,515.3071000240743,515.2960000559688,True,False
16,2,219.40544160001446,cross,"(480.0, -270.0)",0,532.1788999717683,532.1678000036627,True,False
16,2,219.42208440008108,cross,"(480.0, -270.0)",0,548.8217000383884,548.8106000702828,True,False
16,2,219.4388379000593,cross,"(480.0, -270.0)",0,565.5752000166103,565.5641000485048,True,False
16,2,219.45533550006803,cross,"(480.0, -270.0)",0,582.0728000253439,582.0617000572383,True,False
16,2,219.47108020004816,cross,"(480.0, -270.0)",0,597.8175000054762,597.8064000373706,True,False
16,2,219.48808110004757,cross,"(480.0, -270.0)",0,614.8184000048786,614.8073000367731,True,False
16,2,219.50449190009385,cross,"(480.0, -270.0)",0,631.2292000511661,631.2181000830606,True,False
16,2,219.52182090003043,cross,"(480.0, -270.0)",0,648.5581999877468,648.5471000196412,True,False
16,2,219.53818300005514,cross,"(480.0, -270.0)",0,664.9203000124544,664.9092000443488,True,False
16,2,219.5554911000654,cross,"(480.0, -270.0)",0,682.2284000227228,682.2173000546172,True,False
16,2,219.57207880006172,cross,"(480.0, -270.0)",0,698.8161000190303,698.8050000509247,True,False
16,2,219.58864080009516,cross,"(480.0, -270.0)",0,715.3781000524759,715.3670000843704,True,False
16,2,219.60547440010123,cross,"(480.0, -270.0)",0,732.2117000585422,732.2006000904366,True,False
16,2,219.62203930004034,cross,"(480.0, -270.0)",0,748.7765999976546,748.765500029549,True,False
16,2,219.6383767001098,cross,"(480.0, -270.0)",0,765.1140000671148,765.1029000990093,True,False
16,2,219.6552506000735,cross,"(480.0, -270.0)",0,781.9879000307992,781.9768000626937,True,False
16,2,219.6580663000932,circle,"(-480.0, -270.0)",250.62800000887364,784.803600050509,784.7925000824034,True,False
16,2,219.6735601000255,circle,"(-480.0, -270.0)",0,800.29739998281,800.2863000147045,True,False
16,2,219.6876842000056,circle,"(-480.0, -270.0)",0,814.4214999629185,814.4103999948129,True,False
16,2,219.70446900010575,circle,"(-480.0, -270.0)",0,831.2063000630587,831.1952000949532,True,False
16,2,219.72109110001475,circle,"(-480.0, -270.0)",0,847.8283999720588,847.8173000039533,True,False
16,2,219.73765550006647,circle,"(-480.0, -270.0)",0,864.3928000237793,864.3817000556737,True,False
16,2,219.75485910009593,circle,"(-480.0, -270.0)",0,881.5964000532404,881.5853000851348,True,False
16,2,219.77266720007174,circle,"(-480.0, -270.0)",0,899.4045000290498,899.3934000609443,True,False
16,2,219.7886064000195,circle,"(-480.0, -270.0)",0,915.3436999768019,915.3326000086963,True,False
16,2,219.80529850011226,circle,"(-480.0, -270.0)",0,932.0358000695705,932.024700101465,True,False
16,2,219.8220250000013,circle,"(-480.0, -270.0)",0,948.7622999586165,948.7511999905109,True,False
16,2,219.83867990004364,circle,"(-480.0, -270.0)",0,965.4172000009567,965.4061000328511,True,False
16,2,219.8549164000433,circle,"(-480.0, -270.0)",0,981.6537000006065,981.6426000325009,True,False
16,2,219.87183600000571,circle,"(-480.0, -270.0)",0,998.5732999630272,998.5621999949217,True,False
16,2,219.88730380008928,circle,"(-480.0, -270.0)",0,1014.0411000465974,1014.0300000784919,True,False
16,2,219.90393660007976,circle,"(-480.0, -270.0)",0,1030.6739000370726,1030.662800068967,True,False
16,2,219.92085940006655,circle,"(-480.0, -270.0)",0,1047.5967000238597,1047.5856000557542,True,False
16,2,219.9375738000963,circle,"(-480.0, -270.0)",0,1064.311100053601,1064.3000000854954,True,False
16,2,219.954285700107,circle,"(-480.0, -270.0)",0,1081.023000064306,1081.0119000962004,True,False
16,2,219.97139630001038,circle,"(-480.0, -270.0)",0,1098.1335999676958,1098.1224999995902,True,False
16,2,219.98754850006662,circle,"(-480.0, -270.0)",0,1114.2858000239357,1114.2747000558302,True,False
16,2,220.00436480005737,circle,"(-480.0, -270.0)",0,1131.1021000146866,1131.091000046581,True,False
16,2,220.02183330000844,circle,"(-480.0, -270.0)",0,1148.5705999657512,1148.5594999976456,True,False
16,2,220.03831810003612,circle,"(-480.0, -270.0)",0,1165.0553999934345,1165.044300025329,True,False
16,2,220.05513130000327,circle,"(-480.0, -270.0)",0,1181.8685999605805,1181.857499992475,True,False
16,2,220.072057900019,circle,"(-480.0, -270.0)",0,1198.7951999763027,1198.7841000081971,True,False
16,2,220.08859790000133,circle,"(-480.0, -270.0)",0,1215.3351999586448,1215.3240999905393,True,False
16,2,220.1053371001035,circle,"(-480.0, -270.0)",0,1232.0744000608101,1232.0633000927046,True,False
16,2,220.12184730009176,circle,"(-480.0, -270.0)",0,1248.584600049071,1248.5735000809655,True,False
16,2,220.13858140003867,circle,"(-480.0, -270.0)",0,1265.3186999959871,1265.3076000278816,True,False
16,2,220.15406100009568,circle,"(-480.0, -270.0)",0,1280.798300052993,1280.7872000848874,True,False
16,2,220.17100040009245,circle,"(-480.0, -270.0)",0,1297.7377000497654,1297.7266000816599,True,False
16,2,220.18760010006372,circle,"(-480.0, -270.0)",0,1314.3374000210315,1314.326300052926,True,False
16,2,220.2043247000547,circle,"(-480.0, -270.0)",0,1331.0620000120252,1331.0509000439197,True,False
16,2,220.22083860007115,circle,"(-480.0, -270.0)",0,1347.5759000284597,1347.5648000603542,True,False
16,2,220.2382386000827,circle,"(-480.0, -270.0)",0,1364.9759000400081,1364.9648000719026,True,False
16,2,220.25494390004314,circle,"(-480.0, -270.0)",0,1381.6812000004575,1381.670100032352,True,False
16,2,220.27161770011298,circle,"(-480.0, -270.0)",0,1398.3550000702962,1398.3439001021907,True,False
16,2,220.2881976000499,circle,"(-480.0, -270.0)",0,1414.9349000072107,1414.9238000391051,True,False
16,2,220.3049082000507,circle,"(-480.0, -270.0)",0,1431.6455000080168,1431.6344000399113,True,False
16,2,220.3215363000054,circle,"(-480.0, -270.0)",0,1448.2735999627039,1448.2624999945983,True,False
16,2,220.33812550001312,circle,"(-480.0, -270.0)",0,1464.8627999704331,1464.8517000023276,True,False
16,2,220.35513700009324,circle,"(-480.0, -270.0)",0,1481.8743000505492,1481.8632000824437,True,False
16,2,220.37057720008306,circle,"(-480.0, -270.0)",0,1497.3145000403747,1497.3034000722691,True,False
16,2,220.38714130001608,circle,"(-480.0, -270.0)",0,1513.8785999733955,1513.86750000529,True,False
16,2,220.40433950000443,circle,"(-480.0, -270.0)",0,1531.0767999617383,1531.0656999936327,True,False
16,2,220.4208300000755,circle,"(-480.0, -270.0)",0,1547.5673000328243,1547.5562000647187,True,False
16,2,220.43797810003161,circle,"(-480.0, -270.0)",0,1564.715399988927,1564.7043000208214,True,False
16,2,220.45429700007662,circle,"(-480.0, -270.0)",0,1581.0343000339344,1581.0232000658289,True,False
16,2,220.47171790001448,circle,"(-480.0, -270.0)",0,1598.455199971795,1598.4441000036895,True,False
16,2,220.48828190006316,circle,"(-480.0, -270.0)",0,1615.0192000204697,1615.0081000523642,True,False
16,2,220.50494000001345,circle,"(-480.0, -270.0)",0,1631.677299970761,1631.6662000026554,True,False
16,2,220.52192389999982,circle,"(-480.0, -270.0)",0,1648.6611999571323,1648.6500999890268,True,False
16,2,220.53826470009517,circle,"(-480.0, -270.0)",0,1665.002000052482,1664.9909000843763,True,False
16,2,220.55540640000254,circle,"(-480.0, -270.0)",0,1682.1436999598518,1682.1325999917462,True,False
16,2,220.572106000036,circle,"(-480.0, -270.0)",0,1698.8432999933138,1698.8322000252083,True,False
16,2,220.58714660000987,circle,"(-480.0, -270.0)",0,1713.8838999671862,1713.8727999990806,True,False
16,2,220.60527759999968,circle,"(-480.0, -270.0)",0,1732.0148999569938,1732.0037999888882,True,False
16,2,220.6205194001086,circle,"(-480.0, -270.0)",0,1747.2567000659183,1747.2456000978127,True,False
16,2,220.6373219001107,circle,"(-480.0, -270.0)",0,1764.0592000680044,1764.0481000998989,True,False
16,2,220.65404560009483,circle,"(-480.0, -270.0)",0,1780.7829000521451,1780.7718000840396,True,False
16,2,220.67082360002678,circle,"(-480.0, -270.0)",0,1797.5608999840915,1797.549800015986,True,False
16,2,221.1878692000173,cross,"(480.0, -270.0)",266.68619993142784,2314.606499974616,2314.5954000065103,False,True
16,3,221.45449300005566,cross,"(480.0, -270.0)",263.8469999656081,2581.230300012976,266.62380003836006,True,False
16,3,221.4738389000995,cross,"(480.0, -270.0)",0,2600.576200056821,285.96970008220524,True,False
16,3,221.48775740002748,cross,"(480.0, -270.0)",0,2614.494699984789,299.888200010173,True,False
16,3,221.50439340004232,cross,"(480.0, -270.0)",0,2631.1306999996305,316.5242000250146,True,False
16,3,221.52129850001074,cross,"(480.0, -270.0)",0,2648.0357999680564,333.4292999934405,True,False
16,3,221.5379394000629,cross,"(480.0, -270.0)",0,2664.676700020209,350.0702000455931,True,False
16,3,221.55351760005578,cross,"(480.0, -270.0)",0,2680.2549000130966,365.64840003848076,True,False
16,3,221.57048600004055,cross,"(480.0, -270.0)",0,2697.2232999978587,382.61680002324283,True,False
16,3,221.58742120000534,cross,"(480.0, -270.0)",0,2714.1584999626502,399.55199998803437,True,False
16,3,221.60394220007583,cross,"(480.0, -270.0)",0,2730.6795000331476,416.07300005853176,True,False
16,3,221.6204858000856,cross,"(480.0, -270.0)",0,2747.223100042902,432.61660006828606,True,False
16,3,221.63740080001298,cross,"(480.0, -270.0)",0,2764.138099970296,449.53159999568015,True,False
16,3,221.65390280005522,cross,"(480.0, -270.0)",0,2780.6401000125334,466.0336000379175,True,False
16,3,221.67135220009368,cross,"(480.0, -270.0)",0,2798.089500050992,483.4830000763759,True,False
16,3,221.68781450006645,cross,"(480.0, -270.0)",0,2814.5518000237644,499.9453000491485,True,False
16,3,221.7046373001067,cross,"(480.0, -270.0)",0,2831.3746000640094,516.7681000893936,True,False
16,3,221.72132580005564,cross,"(480.0, -270.0)",0,2848.0631000129506,533.4566000383347,True,False
16,3,221.73801160010044,cross,"(480.0, -270.0)",0,2864.748900057748,550.1424000831321,True,False
16,3,221.75470590009354,cross,"(480.0, -270.0)",0,2881.443200050853,566.8367000762373,True,False
16,3,221.77138370007742,cross,"(480.0, -270.0)",0,2898.1210000347346,583.5145000601187,True,False
16,3,221.7878742000321,cross,"(480.0, -270.0)",0,2914.6114999894053,600.0050000147894,True,False
16,3,221.8034764000913,cross,"(480.0, -270.0)",0,2930.2137000486255,615.6072000740096,True,False
16,3,221.8205255001085,cross,"(480.0, -270.0)",0,2947.2628000658005,632.6563000911847,True,False
16,3,221.83733500004746,cross,"(480.0, -270.0)",0,2964.072300004773,649.465800030157,True,False
16,3,221.85362730000634,cross,"(480.0, -270.0)",0,2980.36459996365,665.7580999890342,True,False
16,3,221.87049210001715,cross,"(480.0, -270.0)",0,2997.229399974458,682.622899999842,True,False
16,3,221.8868872000603,cross,"(480.0, -270.0)",0,3013.624500017613,699.0180000429973,True,False
16,3,221.90459100005683,cross,"(480.0, -270.0)",0,3031.328300014138,716.7218000395223,True,False
16,3,221.92111610004213,cross,"(480.0, -270.0)",0,3047.8533999994397,733.2469000248238,True,False
16,3,221.93771610001568,cross,"(480.0, -270.0)",0,3064.45339997299,749.8468999983743,True,False
16,3,221.9542852001032,cross,"(480.0, -270.0)",0,3081.0225000604987,766.4160000858828,True,False
16,3,221.9712136000162,cross,"(480.0, -270.0)",0,3097.9508999735117,783.3443999988958,True,False
16,3,221.9877641000785,cross,"(480.0, -270.0)",0,3114.501400035806,799.8949000611901,True,False
16,3,222.00450220005587,cross,"(480.0, -270.0)",0,3131.23950001318,816.6330000385642,True,False
16,3,222.02121180004906,cross,"(480.0, -270.0)",0,3147.9491000063717,833.3426000317559,True,False
16,3,222.0363648000639,cross,"(480.0, -270.0)",0,3163.102100021206,848.49560004659,True,False
16,3,222.05372160009574,cross,"(480.0, -270.0)",0,3180.458900053054,865.8524000784382,True,False
16,3,222.07038710010238,cross,"(480.0, -270.0)",0,3197.1244000596926,882.5179000850767,True,False
16,3,222.08697930001654,cross,"(480.0, -270.0)",0,3213.71659997385,899.1100999992341,True,False
16,3,222.10408620000817,cross,"(480.0, -270.0)",0,3230.8234999654815,916.2169999908656,True,False
16,3,222.12072940007783,cross,"(480.0, -270.0)",0,3247.4667000351474,932.8602000605315,True,False
16,3,222.13748110004235,cross,"(480.0, -270.0)",0,3264.2183999996632,949.6119000250474,True,False
16,3,222.15453350008465,cross,"(480.0, -270.0)",0,3281.270800041966,966.6643000673503,True,False
16,3,222.17130070005078,cross,"(480.0, -270.0)",0,3298.0380000080913,983.4315000334755,True,False
16,3,222.18797820003238,cross,"(480.0, -270.0)",0,3314.7154999896884,1000.1090000150725,True,False
16,3,222.20454500010237,cross,"(480.0, -270.0)",0,3331.2823000596836,1016.6758000850677,True,False
16,3,222.22111590008717,cross,"(480.0, -270.0)",0,3347.853200044483,1033.246700069867,True,False
16,3,222.23781489999965,cross,"(480.0, -270.0)",0,3364.552199956961,1049.945699982345,True,False
16,3,222.2541308000218,cross,"(480.0, -270.0)",0,3380.868099979125,1066.261600004509,True,False
16,3,222.27082170010544,cross,"(480.0, -270.0)",0,3397.5590000627562,1082.9525000881404,True,False
16,3,222.28756640001666,cross,"(480.0, -270.0)",0,3414.3036999739707,1099.6971999993548,True,False
16,3,222.30412550002802,cross,"(480.0, -270.0)",0,3430.8627999853343,1116.2563000107184,True,False
16,3,222.31952820008155,cross,"(480.0, -270.0)",0,3446.2655000388622,1131.6590000642464,True,False
16,3,222.3361176000908,cross,"(480.0, -270.0)",0,3462.8549000481144,1148.2484000734985,True,False
16,3,222.35278380010277,cross,"(480.0, -270.0)",0,3479.521100060083,1164.914600085467,True,False
16,3,222.36980490002315,cross,"(480.0, -270.0)",0,3496.5421999804676,1181.9357000058517,True,False
16,3,222.38665060000494,cross,"(480.0, -270.0)",0,3513.387899962254,1198.781399987638,True,False
16,3,222.40334560000338,cross,"(480.0, -270.0)",0,3530.0828999606892,1215.4763999860734,True,False
16,3,222.42027160001453,cross,"(480.0, -270.0)",0,3547.0088999718428,1232.402399997227,True,False
16,3,222.43707790004555,cross,"(480.0, -270.0)",0,3563.815200002864,1249.2087000282481,True,False
16,3,222.4535183000844,cross,"(480.0, -270.0)",0,3580.25560004171,1265.649100067094,True,False
16,3,222.47111770010088,cross,"(480.0, -270.0)",0,3597.855000058189,1283.2485000835732,True,False
16,3,222.48759190004785,cross,"(480.0, -270.0)",0,3614.329200005159,1299.722700030543,True,False
16,3,222.50416460004635,cross,"(480.0, -270.0)",0,3630.901900003664,1316.2954000290483,True,False
16,3,222.52099740004633,cross,"(480.0, -270.0)",0,3647.734700003639,1333.128200029023,True,False
16,3,222.53766130004078,cross,"(480.0, -270.0)",0,3664.398599998094,1349.7921000234783,True,False
16,3,222.55418810003903,cross,"(480.0, -270.0)",0,3680.9253999963403,1366.3189000217244,True,False
16,3,222.5708411000669,cross,"(480.0, -270.0)",0,3697.578400024213,1382.971900049597,True,False
16,3,222.5875830000732,cross,"(480.0, -270.0)",0,3714.320300030522,1399.7138000559062,True,False
16,3,222.6028859000653,cross,"(480.0, -270.0)",0,3729.6232000226155,1415.0167000479996,True,False
16,3,222.61993400007486,cross,"(480.0, -270.0)",0,3746.671300032176,1432.0648000575602,True,False
16,3,222.63765480008442,cross,"(480.0, -270.0)",0,3764.392100041732,1449.7856000671163,True,False
16,3,222.6538612000877,cross,"(480.0, -270.0)",0,3780.5985000450164,1465.9920000704005,True,False
16,3,222.67048450000584,cross,"(480.0, -270.0)",0,3797.221799963154,1482.615299988538,True,False
16,3,222.68705380009487,cross,"(480.0, -270.0)",0,3813.7911000521854,1499.1846000775695,True,False
16,3,222.70391160005238,cross,"(480.0, -270.0)",0,3830.6489000096917,1516.0424000350758,True,False
16,3,222.72113040008117,cross,"(480.0, -270.0)",0,3847.867700038478,1533.261200063862,True,False
16,3,222.73764160007704,cross,"(480.0, -270.0)",0,3864.378900034353,1549.7724000597373,True,False
16,3,222.75411760003772,cross,"(480.0, -270.0)",0,3880.854899995029,1566.248400020413,True,False
16,3,222.7709866000805,cross,"(480.0, -270.0)",0,3897.7239000378177,1583.1174000632018,True,False
16,3,222.7876514000818,cross,"(480.0, -270.0)",0,3914.388700039126,1599.78220006451,True,False
16,3,222.80424700002186,cross,"(480.0, -270.0)",0,3930.9842999791726,1616.3778000045568,True,False
16,3,222.82102410006337,cross,"(480.0, -270.0)",0,3947.7614000206813,1633.1549000460654,True,False
16,3,222.83748090011068,cross,"(480.0, -270.0)",0,3964.2182000679895,1649.6117000933737,True,False
16,3,222.8545337000396,cross,"(480.0, -270.0)",0,3981.270999996923,1666.664500022307,True,False
16,3,222.86960940004792,cross,"(480.0, -270.0)",0,3996.3467000052333,1681.7402000306174,True,False
16,3,222.88671960006468,cross,"(480.0, -270.0)",0,4013.4569000219926,1698.8504000473768,True,False
16,3,222.90409900003579,cross,"(480.0, -270.0)",0,4030.836299993098,1716.229800018482,True,False
16,3,222.92042450001463,cross,"(480.0, -270.0)",0,4047.1617999719456,1732.5552999973297,True,False
16,3,222.9372659000801,cross,"(480.0, -270.0)",0,4064.003200037405,1749.396700062789,True,False
16,3,222.9535734000383,cross,"(480.0, -270.0)",0,4080.310699995607,1765.7042000209913,True,False
16,3,222.96962600003462,cross,"(480.0, -270.0)",0,4096.3632999919355,1781.7568000173196,True,False
16,3,222.9877015000675,cross,"(480.0, -270.0)",0,4114.4388000248,1799.8323000501841,True,False
16,3,223.65418920002412,star,"(-480.0, 270.0)",266.9406000059098,4780.926499981433,2466.3200000068173,False,True
16,4,228.51881610008422,cross,"(480.0, -270.0)",250.08120003622025,9645.553400041535,4864.626900060102,False,True
