trial_num,selection_num,timestamp,shape,position,fixation_duration_ms,rt_from_trial_start_ms,rt_from_previous_selection_ms,queued_selection,was_executed
13,1,182.8625070999842,circle,"(-480.0, -270.0)",0,0.01279998105019331,0.01279998105019331,False,True
13,2,183.74239829997532,circle,"(-480.0, -270.0)",250.97950000781566,879.9039999721572,879.891199991107,True,False
13,2,183.7640222000191,circle,"(-480.0, -270.0)",0,901.5279000159353,901.5151000348851,True,False
13,2,183.7813910000259,circle,"(-480.0, -270.0)",0,918.8967000227422,918.883900041692,True,False
13,2,183.80763739999384,circle,"(-480.0, -270.0)",0,945.1430999906734,945.1303000096232,True,False
13,2,183.82432889996562,circle,"(-480.0, -270.0)",0,961.834599962458,961.8217999814078,True,False
13,2,183.84225899993908,circle,"(-480.0, -270.0)",0,979.7646999359131,979.7518999548629,True,False
13,2,183.85868449998088,circle,"(-480.0, -270.0)",0,996.1901999777183,996.1773999966681,True,False
13,2,183.8759383999277,circle,"(-480.0, -270.0)",0,1013.4440999245271,1013.4312999434769,True,False
13,2,183.89170269994065,circle,"(-480.0, -270.0)",0,1029.2083999374881,1029.195599956438,True,False
13,2,183.9088320999872,circle,"(-480.0, -270.0)",0,1046.3377999840304,1046.3250000029802,True,False
13,2,183.9252839999972,circle,"(-480.0, -270.0)",0,1062.7896999940276,1062.7769000129774,True,False
13,2,183.94166359992232,circle,"(-480.0, -270.0)",0,1079.1692999191582,1079.156499938108,True,False
13,2,183.9579178999411,circle,"(-480.0, -270.0)",0,1095.4235999379307,1095.4107999568805,True,False
13,2,183.97543709992897,circle,"(-480.0, -270.0)",0,1112.9427999258041,1112.929999944754,True,False
13,2,183.99237729993183,circle,"(-480.0, -270.0)",0,1129.8829999286681,1129.870199947618,True,False
13,2,184.00886539998464,circle,"(-480.0, -270.0)",0,1146.3710999814793,1146.3583000004292,True,False
13,2,184.02382360002957,circle,"(-480.0, -270.0)",0,1161.3293000264093,1161.3165000453591,True,False
13,2,184.0432447999483,circle,"(-480.0, -270.0)",0,1180.750499945134,1180.7376999640837,True,False
13,2,184.05778869998176,circle,"(-480.0, -270.0)",0,1195.294399978593,1195.2815999975428,True,False
13,2,184.07534999994095,circle,"(-480.0, -270.0)",0,1212.8556999377906,1212.8428999567404,True,False
13,2,184.0924375000177,circle,"(-480.0, -270.0)",0,1229.9432000145316,1229.9304000334814,True,False
13,2,184.1085630999878,circle,"(-480.0, -270.0)",0,1246.0687999846414,1246.0560000035912,True,False
13,2,184.12474479991943,circle,"(-480.0, -270.0)",0,1262.250499916263,1262.2376999352127,True,False
13,2,184.14100860001054,circle,"(-480.0, -270.0)",0,1278.514300007373,1278.501500026323,True,False
13,2,184.15783229994122,circle,"(-480.0, -270.0)",0,1295.3379999380559,1295.3251999570057,True,False
13,2,184.17499520001002,circle,"(-480.0, -270.0)",0,1312.500900006853,1312.4881000258029,True,False
13,2,184.19103039999027,circle,"(-480.0, -270.0)",0,1328.5360999871045,1328.5233000060543,True,False
13,2,184.20784139994066,circle,"(-480.0, -270.0)",0,1345.3470999374986,1345.3342999564484,True,False
13,2,184.2243125999812,circle,"(-480.0, -270.0)",0,1361.8182999780402,1361.80549999699,True,False
13,2,184.24212860001717,circle,"(-480.0, -270.0)",0,1379.634300014004,1379.621500032954,True,False
13,2,184.25665559992194,circle,"(-480.0, -270.0)",0,1394.1612999187782,1394.148499937728,True,False
13,2,184.27610529994126,circle,"(-480.0, -270.0)",0,1413.6109999381006,1413.5981999570504,True,False
13,2,184.29044210002758,circle,"(-480.0, -270.0)",0,1427.9478000244126,1427.9350000433624,True,False
13,2,184.30702439998277,circle,"(-480.0, -270.0)",0,1444.5300999796018,1444.5172999985516,True,False
13,2,184.32505069999024,circle,"(-480.0, -270.0)",0,1462.5563999870792,1462.543600006029,True,False
13,2,184.3412516999524,circle,"(-480.0, -270.0)",0,1478.7573999492452,1478.744599968195,True,False
13,2,184.3584757000208,circle,"(-480.0, -270.0)",0,1495.9814000176266,1495.9686000365764,True,False
13,2,184.3746633999981,circle,"(-480.0, -270.0)",0,1512.169099994935,1512.156300013885,True,False
13,2,184.39081389992498,circle,"(-480.0, -270.0)",0,1528.319599921815,1528.306799940765,True,False
13,2,184.40815959998872,circle,"(-480.0, -270.0)",0,1545.6652999855578,1545.6525000045076,True,False
13,2,184.4242658999283,circle,"(-480.0, -270.0)",0,1561.7715999251232,1561.758799944073,True,False
13,2,184.44126430002507,circle,"(-480.0, -270.0)",0,1578.7700000219047,1578.7572000408545,True,False
13,2,184.4575922000222,circle,"(-480.0, -270.0)",0,1595.0979000190273,1595.085100037977,True,False
13,2,184.47449079994112,circle,"(-480.0, -270.0)",0,1611.996499937959,1611.9836999569088,True,False
13,2,184.49097859999165,circle,"(-480.0, -270.0)",0,1628.4842999884859,1628.4715000074357,True,False
13,2,184.507708500023,circle,"(-480.0, -270.0)",0,1645.2142000198364,1645.2014000387862,True,False
13,2,184.52347260003444,circle,"(-480.0, -270.0)",0,1660.9783000312746,1660.9655000502244,True,False
13,2,184.54247450002003,circle,"(-480.0, -270.0)",0,1679.980200016871,1679.967400035821,True,False
13,2,184.55686659994535,circle,"(-480.0, -270.0)",0,1694.372299942188,1694.3594999611378,True,False
13,2,184.57625319994986,circle,"(-480.0, -270.0)",0,1713.758899946697,1713.7460999656469,True,False
13,2,184.5904237999348,circle,"(-480.0, -270.0)",0,1727.9294999316335,1727.9166999505833,True,False
13,2,184.6080722999759,circle,"(-480.0, -270.0)",0,1745.5779999727383,1745.5651999916881,True,False
13,2,184.62372379994486,circle,"(-480.0, -270.0)",0,1761.2294999416918,1761.2166999606416,True,False
13,2,184.64137680002023,circle,"(-480.0, -270.0)",0,1778.8825000170618,1778.8697000360116,True,False
13,2,185.12702389992774,star,"(-480.0, 270.0)",251.7164999153465,2264.529599924572,2264.5167999435216,False,True
13,3,185.42342240002472,circle,"(-480.0, -270.0)",263.04210000671446,2560.928100021556,296.3985000969842,True,False
13,3,185.4446208999725,circle,"(-480.0, -270.0)",0,2582.1265999693424,317.59700004477054,True,False
13,3,185.4572077000048,circle,"(-480.0, -270.0)",0,2594.7134000016376,330.1838000770658,True,False
13,3,185.47495960001834,circle,"(-480.0, -270.0)",0,2612.465300015174,347.93570009060204,True,False
13,3,185.49100779998116,circle,"(-480.0, -270.0)",0,2628.5134999779984,363.9839000534266,True,False
13,3,185.50826619996224,circle,"(-480.0, -270.0)",0,2645.7718999590725,381.24230003450066,True,False
13,3,185.52336330001708,circle,"(-480.0, -270.0)",0,2660.8690000139177,396.3394000893459,True,False
13,3,185.54039839992765,circle,"(-480.0, -270.0)",0,2677.90409992449,413.37449999991804,True,False
13,3,185.55695220001508,circle,"(-480.0, -270.0)",0,2694.457900011912,429.9283000873402,True,False
13,3,185.57440339995082,circle,"(-480.0, -270.0)",0,2711.909099947661,447.37950002308935,True,False
13,3,185.5911542000249,circle,"(-480.0, -270.0)",0,2728.6599000217393,464.1303000971675,True,False
13,3,185.60774160001893,circle,"(-480.0, -270.0)",0,2745.2473000157624,480.71770009119064,True,False
13,3,185.6241144000087,circle,"(-480.0, -270.0)",0,2761.62010000553,497.090500080958,True,False
13,3,185.64125220000278,circle,"(-480.0, -270.0)",0,2778.7578999996185,514.2283000750467,True,False
13,3,185.65666730003431,circle,"(-480.0, -270.0)",0,2794.173000031151,529.6434001065791,True,False
13,3,185.67419980000705,circle,"(-480.0, -270.0)",0,2811.7055000038818,547.1759000793099,True,False
13,3,185.69076129992027,circle,"(-480.0, -270.0)",0,2828.266999917105,563.737399992533,True,False
13,3,185.7084002000047,circle,"(-480.0, -270.0)",0,2845.905900001526,581.3763000769541,True,False
13,3,185.72470339993015,circle,"(-480.0, -270.0)",0,2862.209099926986,597.679500002414,True,False
13,3,185.7411521000322,circle,"(-480.0, -270.0)",0,2878.657800029032,614.1282001044601,True,False
13,3,185.7580464000348,circle,"(-480.0, -270.0)",0,2895.5521000316367,631.0225001070648,True,False
13,3,185.77425459993538,circle,"(-480.0, -270.0)",0,2911.7602999322116,647.2307000076398,True,False
13,3,185.79097390000243,circle,"(-480.0, -270.0)",0,2928.479599999264,663.9500000746921,True,False
13,3,185.80831310001668,circle,"(-480.0, -270.0)",0,2945.8188000135124,681.2892000889406,True,False
13,3,185.82398450002074,circle,"(-480.0, -270.0)",0,2961.490200017579,696.9606000930071,True,False
13,3,185.8420987999998,circle,"(-480.0, -270.0)",0,2979.60449999664,715.074900072068,True,False
13,3,185.8583304999629,circle,"(-480.0, -270.0)",0,2995.83619995974,731.3066000351682,True,False
13,3,185.87515799992252,circle,"(-480.0, -270.0)",0,3012.663699919358,748.1340999947861,True,False
13,3,185.89094670000486,circle,"(-480.0, -270.0)",0,3028.4524000016972,763.9228000771254,True,False
13,3,185.90765119995922,circle,"(-480.0, -270.0)",0,3045.156899956055,780.6273000314832,True,False
13,3,185.91020839998964,star,"(-480.0, 270.0)",251.54890003614128,3047.7140999864787,783.1845000619069,True,False
13,3,185.92693840002175,star,"(-480.0, 270.0)",0,3064.4441000185907,799.9145000940189,True,False
13,3,185.94143559993245,star,"(-480.0, 270.0)",0,3078.9412999292836,814.4117000047117,True,False
13,3,185.9577809999464,star,"(-480.0, 270.0)",0,3095.2866999432445,830.7571000186726,True,False
13,3,185.97416430001613,star,"(-480.0, 270.0)",0,3111.670000012964,847.1404000883922,True,False
13,3,185.99034279992338,star,"(-480.0, 270.0)",0,3127.848499920219,863.3188999956474,True,False
13,3,186.00837880000472,star,"(-480.0, 270.0)",0,3145.884500001557,881.3549000769854,True,False
13,3,186.02492019999772,star,"(-480.0, 270.0)",0,3162.4258999945596,897.8963000699878,True,False
13,3,186.04139729996677,star,"(-480.0, 270.0)",0,3178.9029999636114,914.3734000390396,True,False
13,3,186.0578195999842,star,"(-480.0, 270.0)",0,3195.32529998105,930.7957000564784,True,False
13,3,186.0750713000307,star,"(-480.0, 270.0)",0,3212.5770000275224,948.0474001029506,True,False
13,3,186.091360899969,star,"(-480.0, 270.0)",0,3228.8665999658406,964.3370000412688,True,False
13,3,186.1090771999443,star,"(-480.0, 270.0)",0,3246.5828999411315,982.0533000165597,True,False
13,3,186.12317669996992,star,"(-480.0, 270.0)",0,3260.682399966754,996.1528000421822,True,False
13,3,186.14248309994582,star,"(-480.0, 270.0)",0,3279.9887999426574,1015.4592000180855,True,False
13,3,186.15639859996736,star,"(-480.0, 270.0)",0,3293.904299964197,1029.3747000396252,True,False
13,3,186.1736425999552,star,"(-480.0, 270.0)",0,3311.1482999520376,1046.6187000274658,True,False
13,3,186.19153309997637,star,"(-480.0, 270.0)",0,3329.0387999732047,1064.509200048633,True,False
13,3,186.20812079997268,star,"(-480.0, 270.0)",0,3345.626499969512,1081.0969000449404,True,False
13,3,186.2242843999993,star,"(-480.0, 270.0)",0,3361.790099996142,1097.2605000715703,True,False
13,3,186.24096520000603,star,"(-480.0, 270.0)",0,3378.470900002867,1113.9413000782952,True,False
13,3,186.25758580002002,star,"(-480.0, 270.0)",0,3395.0915000168607,1130.5619000922889,True,False
13,3,186.27393729996402,star,"(-480.0, 270.0)",0,3411.4429999608546,1146.9134000362828,True,False
13,3,186.29075539996848,star,"(-480.0, 270.0)",0,3428.2610999653116,1163.7315000407398,True,False
13,3,186.3082815000089,star,"(-480.0, 270.0)",0,3445.787200005725,1181.2576000811532,True,False
13,3,186.32297460001428,star,"(-480.0, 270.0)",0,3460.4803000111133,1195.9507000865415,True,False
13,3,186.34192349994555,star,"(-480.0, 270.0)",0,3479.4291999423876,1214.8996000178158,True,False
13,3,186.35601829993539,star,"(-480.0, 270.0)",0,3493.523999932222,1228.9944000076503,True,False
13,3,186.37342309998348,star,"(-480.0, 270.0)",0,3510.92879998032,1246.3992000557482,True,False
13,3,186.3894994999282,star,"(-480.0, 270.0)",0,3527.0051999250427,1262.4756000004709,True,False
13,3,186.40863379999064,star,"(-480.0, 270.0)",0,3546.1394999874756,1281.6099000629038,True,False
13,3,186.42213670001365,star,"(-480.0, 270.0)",0,3559.642400010489,1295.1128000859171,True,False
13,3,186.44078499998432,star,"(-480.0, 270.0)",0,3578.290699981153,1313.7611000565812,True,False
13,3,186.4561247000238,star,"(-480.0, 270.0)",0,3593.630400020629,1329.1008000960574,True,False
13,3,186.47429589997046,star,"(-480.0, 270.0)",0,3611.8015999672934,1347.2720000427216,True,False
13,3,186.49082599999383,star,"(-480.0, 270.0)",0,3628.3316999906674,1363.8021000660956,True,False
13,3,186.50739659997635,star,"(-480.0, 270.0)",0,3644.9022999731824,1380.3727000486106,True,False
13,3,186.52350599993952,star,"(-480.0, 270.0)",0,3661.0116999363527,1396.4821000117809,True,False
13,3,186.54179249994922,star,"(-480.0, 270.0)",0,3679.298199946061,1414.768600021489,True,False
13,3,186.5559286000207,star,"(-480.0, 270.0)",0,3693.434300017543,1428.9047000929713,True,False
13,3,186.57496090000495,star,"(-480.0, 270.0)",0,3712.4666000017896,1447.9370000772178,True,False
13,3,186.5888593000127,star,"(-480.0, 270.0)",0,3726.3650000095367,1461.835400084965,True,False
13,3,186.60729620000347,star,"(-480.0, 270.0)",0,3744.8019000003114,1480.2723000757396,True,False
13,3,186.6224927000003,star,"(-480.0, 270.0)",0,3759.99839999713,1495.4688000725582,True,False
13,3,186.64058909995947,star,"(-480.0, 270.0)",0,3778.094799956307,1513.565200031735,True,False
13,3,186.65662439994048,star,"(-480.0, 270.0)",0,3794.1300999373198,1529.600500012748,True,False
13,3,186.67445509997196,star,"(-480.0, 270.0)",0,3811.9607999688014,1547.4312000442296,True,False
13,3,186.6914038999239,star,"(-480.0, 270.0)",0,3828.9095999207348,1564.379999996163,True,False
13,3,186.70802459993865,star,"(-480.0, 270.0)",0,3845.53029993549,1581.000700010918,True,False
13,3,186.72396520001348,star,"(-480.0, 270.0)",0,3861.4709000103176,1596.9413000857458,True,False
13,3,186.74093600001652,star,"(-480.0, 270.0)",0,3878.4417000133544,1613.9121000887826,True,False
13,3,186.75638629996683,star,"(-480.0, 270.0)",0,3893.891999963671,1629.3624000390992,True,False
13,3,186.77389760001097,star,"(-480.0, 270.0)",0,3911.4033000078052,1646.8737000832334,True,False
13,3,186.79063249996398,star,"(-480.0, 270.0)",0,3928.138199960813,1663.6086000362411,True,False
13,3,186.8088063999312,star,"(-480.0, 270.0)",0,3946.3120999280363,1681.7825000034645,True,False
13,3,186.82361700001638,star,"(-480.0, 270.0)",0,3961.1227000132203,1696.5931000886485,True,False
13,3,186.8408136999933,star,"(-480.0, 270.0)",0,3978.3193999901414,1713.7898000655696,True,False
13,3,186.85553900001105,star,"(-480.0, 270.0)",0,3993.0447000078857,1728.5151000833139,True,False
13,3,186.8744452999672,star,"(-480.0, 270.0)",0,4011.9509999640286,1747.4214000394568,True,False
13,3,186.89089229993988,star,"(-480.0, 270.0)",0,4028.3979999367148,1763.868400012143,True,False
13,3,186.90788960002828,star,"(-480.0, 270.0)",0,4045.3953000251204,1780.8657001005486,True,False
13,3,187.54141780000646,t,"(480.0, 270.0)",268.5324000194669,4678.923500003293,2414.3939000787213,False,True
13,4,190.3069176999852,cross,"(480.0, -270.0)",268.1820000289008,7444.423399982043,2765.4998999787495,False,True
14,1,194.39142539992463,circle,"(-480.0, -270.0)",0,0.01109996810555458,0.01109996810555458,False,True
14,2,195.00411360000726,circle,"(-480.0, -270.0)",266.4191999938339,612.6993000507355,612.6882000826299,True,False
14,2,195.02948129992,circle,"(-480.0, -270.0)",0,638.0669999634847,638.0558999953791,True,False
14,2,195.0417226999998,circle,"(-480.0, -270.0)",0,650.3084000432864,650.2973000751808,True,False
14,2,195.0552910999395,circle,"(-480.0, -270.0)",0,663.8767999829724,663.8657000148669,True,False
14,2,195.07245999993756,circle,"(-480.0, -270.0)",0,681.0456999810413,681.0346000129357,True,False
14,2,195.08812390000094,circle,"(-480.0, -270.0)",0,696.7096000444144,696.6985000763088,True,False
14,2,195.10504039993975,circle,"(-480.0, -270.0)",0,713.6260999832302,713.6150000151247,True,False
14,2,195.12089020002168,circle,"(-480.0, -270.0)",0,729.4759000651538,729.4648000970483,True,False
14,2,195.1390930999769,circle,"(-480.0, -270.0)",0,747.6788000203669,747.6677000522614,True,False
14,2,195.15535949997138,circle,"(-480.0, -270.0)",0,763.9452000148594,763.9341000467539,True,False
14,2,195.17255979997572,circle,"(-480.0, -270.0)",0,781.1455000191927,781.1344000510871,True,False
14,2,195.18732129991986,circle,"(-480.0, -270.0)",0,795.9069999633357,795.8958999952301,True,False
14,2,195.20589989994187,circle,"(-480.0, -270.0)",0,814.4855999853462,814.4745000172406,True,False
14,2,195.22208640002646,circle,"(-480.0, -270.0)",0,830.6721000699326,830.6610001018271,True,False
14,2,195.23778019996826,circle,"(-480.0, -270.0)",0,846.3659000117332,846.3548000436276,True,False
14,2,195.25498009996954,circle,"(-480.0, -270.0)",0,863.5658000130206,863.5547000449151,True,False
14,2,195.2719853000017,circle,"(-480.0, -270.0)",0,880.5710000451654,880.5599000770599,True,False
14,2,195.2882598999422,circle,"(-480.0, -270.0)",0,896.8455999856815,896.8345000175759,True,False
14,2,195.30510779994074,circle,"(-480.0, -270.0)",0,913.6934999842197,913.6824000161141,True,False
14,2,195.3192855999805,circle,"(-480.0, -270.0)",0,927.8713000239804,927.8602000558749,True,False
14,2,195.33873349998612,circle,"(-480.0, -270.0)",0,947.3192000295967,947.3081000614911,True,False
14,2,195.35435989999678,circle,"(-480.0, -270.0)",0,962.945600040257,962.9345000721514,True,False
14,2,195.37089429993648,circle,"(-480.0, -270.0)",0,979.4799999799579,979.4689000118524,True,False
14,2,195.38669680000748,circle,"(-480.0, -270.0)",0,995.282500050962,995.2714000828564,True,False
14,2,195.40387649997137,circle,"(-480.0, -270.0)",0,1012.462200014852,1012.4511000467464,True,False
14,2,195.42011189996265,circle,"(-480.0, -270.0)",0,1028.6976000061259,1028.6865000380203,True,False
14,2,195.4372660999652,circle,"(-480.0, -270.0)",0,1045.851800008677,1045.8407000405714,True,False
14,2,195.45215989998542,circle,"(-480.0, -270.0)",0,1060.7456000288948,1060.7345000607893,True,False
14,2,195.47123100003228,circle,"(-480.0, -270.0)",0,1079.816700075753,1079.8056001076475,True,False
14,2,195.4880134999985,circle,"(-480.0, -270.0)",0,1096.5992000419647,1096.588100073859,True,False
14,2,195.50520180002786,circle,"(-480.0, -270.0)",0,1113.7875000713393,1113.7764001032338,True,False
14,2,195.5209554999601,circle,"(-480.0, -270.0)",0,1129.5412000035867,1129.5301000354812,True,False
14,2,195.53773739992175,circle,"(-480.0, -270.0)",0,1146.3230999652296,1146.311999997124,True,False
14,2,195.55305869993754,circle,"(-480.0, -270.0)",0,1161.6443999810144,1161.6333000129089,True,False
14,2,195.5722839999944,circle,"(-480.0, -270.0)",0,1180.8697000378743,1180.8586000697687,True,False
14,2,195.58665710000787,circle,"(-480.0, -270.0)",0,1195.2428000513464,1195.2317000832409,True,False
14,2,195.60551239992492,circle,"(-480.0, -270.0)",0,1214.0980999683961,1214.0870000002906,True,False
14,2,195.61981159995776,circle,"(-480.0, -270.0)",0,1228.3973000012338,1228.3862000331283,True,False
14,2,195.63701900001615,circle,"(-480.0, -270.0)",0,1245.60470005963,1245.5936000915244,True,False
14,2,195.65429069998208,circle,"(-480.0, -270.0)",0,1262.8764000255615,1262.865300057456,True,False
14,2,195.67119080002885,circle,"(-480.0, -270.0)",0,1279.7765000723302,1279.7654001042247,True,False
14,2,195.68794259999413,circle,"(-480.0, -270.0)",0,1296.5283000376076,1296.517200069502,True,False
14,2,195.70523239998147,circle,"(-480.0, -270.0)",0,1313.818100024946,1313.8070000568405,True,False
14,2,195.721834499971,circle,"(-480.0, -270.0)",0,1330.420200014487,1330.4091000463814,True,False
14,2,195.7386483999435,circle,"(-480.0, -270.0)",0,1347.234099986963,1347.2230000188574,True,False
14,2,195.755413100007,circle,"(-480.0, -270.0)",0,1363.9988000504673,1363.9877000823617,True,False
14,2,195.772737900028,circle,"(-480.0, -270.0)",0,1381.3236000714824,1381.3125001033768,True,False
14,2,195.78679249994457,circle,"(-480.0, -270.0)",0,1395.3781999880448,1395.3671000199392,True,False
14,2,195.80568039999343,circle,"(-480.0, -270.0)",0,1414.2661000369117,1414.255000068806,True,False
14,2,195.82010050001554,circle,"(-480.0, -270.0)",0,1428.686200059019,1428.6751000909135,True,False
14,2,195.83905209996738,circle,"(-480.0, -270.0)",0,1447.6378000108525,1447.626700042747,True,False
14,2,195.85394920001272,circle,"(-480.0, -270.0)",0,1462.5349000561982,1462.5238000880927,True,False
14,2,195.87268909998238,circle,"(-480.0, -270.0)",0,1481.274800025858,1481.2637000577524,True,False
14,2,195.8877564999275,circle,"(-480.0, -270.0)",0,1496.342199970968,1496.3311000028625,True,False
14,2,195.90445449994877,circle,"(-480.0, -270.0)",0,1513.040199992247,1513.0291000241414,True,False
14,2,195.92119329993147,circle,"(-480.0, -270.0)",0,1529.7789999749511,1529.7679000068456,True,False
14,2,195.9383119000122,circle,"(-480.0, -270.0)",0,1546.8976000556722,1546.8865000875667,True,False
14,2,195.95476240001153,circle,"(-480.0, -270.0)",0,1563.3481000550091,1563.3370000869036,True,False
14,2,195.97155010001734,circle,"(-480.0, -270.0)",0,1580.135800060816,1580.1247000927106,True,False
14,2,195.98732129996642,circle,"(-480.0, -270.0)",0,1595.9070000099018,1595.8959000417963,True,False
14,2,196.00495650002267,circle,"(-480.0, -270.0)",0,1613.5422000661492,1613.5311000980437,True,False
14,2,196.02096260001417,circle,"(-480.0, -270.0)",0,1629.5483000576496,1629.537200089544,True,False
14,2,196.03915089997463,circle,"(-480.0, -270.0)",0,1647.7366000181064,1647.7255000500008,True,False
14,2,196.05345479992684,circle,"(-480.0, -270.0)",0,1662.040499970317,1662.0294000022113,True,False
14,2,196.07239659992047,circle,"(-480.0, -270.0)",0,1680.9822999639437,1680.971199995838,True,False
14,2,196.08741139993072,circle,"(-480.0, -270.0)",0,1695.9970999741927,1695.9860000060871,True,False
14,2,196.10398989997339,circle,"(-480.0, -270.0)",0,1712.5756000168622,1712.5645000487566,True,False
14,2,196.1213821999263,circle,"(-480.0, -270.0)",0,1729.967899969779,1729.9568000016734,True,False
14,2,196.1387742999941,circle,"(-480.0, -270.0)",0,1747.3600000375882,1747.3489000694826,True,False
14,2,196.1553257999476,circle,"(-480.0, -270.0)",0,1763.9114999910817,1763.900400022976,True,False
15,1,201.6865447999444,circle,"(-480.0, -270.0)",0,0.010199961252510548,0.010199961252510548,False,True
15,2,201.9512693999568,cross,"(480.0, -270.0)",262.7569999312982,264.73479997366667,264.72460001241416,True,False
15,2,201.97017550002784,cross,"(480.0, -270.0)",0,283.640900044702,283.6307000834495,True,False
15,2,201.98472409998067,cross,"(480.0, -270.0)",0,298.18949999753386,298.17930003628135,True,False
15,2,202.00077739998233,cross,"(480.0, -270.0)",0,314.24279999919236,314.23260003793985,True,False
15,2,202.0204127000179,cross,"(480.0, -270.0)",0,333.8781000347808,333.8679000735283,True,False
15,2,202.03549349994864,cross,"(480.0, -270.0)",0,348.9588999655098,348.94870000425726,True,False
15,2,202.0521475999849,cross,"(480.0, -270.0)",0,365.61300000175834,365.6028000405058,True,False
15,2,202.06836779997684,cross,"(480.0, -270.0)",0,381.83319999370724,381.82300003245473,True,False
15,2,202.08538309996948,cross,"(480.0, -270.0)",0,398.8484999863431,398.8383000250906,True,False
15,2,202.1011950999964,cross,"(480.0, -270.0)",0,414.6605000132695,414.650300052017,True,False
15,2,202.1183392999228,cross,"(480.0, -270.0)",0,431.80469993967563,431.7944999784231,True,False
15,2,202.1344470999902,cross,"(480.0, -270.0)",0,447.91250000707805,447.90230004582554,True,False
15,2,202.1516083999304,cross,"(480.0, -270.0)",0,465.0737999472767,465.0635999860242,True,False
15,2,202.16710189997684,cross,"(480.0, -270.0)",0,480.56729999370873,480.5571000324562,True,False
15,2,202.18411849997938,cross,"(480.0, -270.0)",0,497.5838999962434,497.5737000349909,True,False
15,2,202.19990629993845,cross,"(480.0, -270.0)",0,513.3716999553144,513.3614999940619,True,False
15,2,202.21772549999878,cross,"(480.0, -270.0)",0,531.1909000156447,531.1807000543922,True,False
15,2,202.2334254999878,cross,"(480.0, -270.0)",0,546.8909000046551,546.8807000434026,True,False
15,2,202.25092659995425,cross,"(480.0, -270.0)",0,564.3919999711215,564.381800009869,True,False
15,2,202.2667780999327,cross,"(480.0, -270.0)",0,580.2434999495745,580.233299988322,True,False
15,2,202.28444770001806,cross,"(480.0, -270.0)",0,597.9131000349298,597.9029000736773,True,False
15,2,202.30074380000588,cross,"(480.0, -270.0)",0,614.2092000227422,614.1990000614896,True,False
15,2,202.31785849994048,cross,"(480.0, -270.0)",0,631.3238999573514,631.3136999960989,True,False
15,2,202.3340686999727,cross,"(480.0, -270.0)",0,647.5340999895707,647.5239000283182,True,False
15,2,202.35204869997688,cross,"(480.0, -270.0)",0,665.514099993743,665.5039000324905,True,False
15,2,202.36762489995454,cross,"(480.0, -270.0)",0,681.0902999714017,681.0801000101492,True,False
15,2,202.38450549996924,cross,"(480.0, -270.0)",0,697.9708999861032,697.9607000248507,True,False
15,2,202.40076300001238,cross,"(480.0, -270.0)",0,714.228400029242,714.2182000679895,True,False
15,2,202.4178562000161,cross,"(480.0, -270.0)",0,731.3216000329703,731.3114000717178,True,False
15,2,202.420608800021,circle,"(-480.0, -270.0)",266.4114000508562,734.0742000378668,734.0640000766143,True,False
15,2,202.43628219992388,circle,"(-480.0, -270.0)",0,749.747599940747,749.7373999794945,True,False
15,2,202.45112250000238,circle,"(-480.0, -270.0)",0,764.5879000192508,764.5777000579983,True,False
15,2,202.46638929995243,circle,"(-480.0, -270.0)",0,779.8546999692917,779.8445000080392,True,False
15,2,202.48397279996425,circle,"(-480.0, -270.0)",0,797.4381999811158,797.4280000198632,True,False
15,2,202.50011219992302,circle,"(-480.0, -270.0)",0,813.5775999398902,813.5673999786377,True,False
15,2,202.51734669995494,circle,"(-480.0, -270.0)",0,830.8120999718085,830.801900010556,True,False
15,2,202.53409229998942,circle,"(-480.0, -270.0)",0,847.5577000062913,847.5475000450388,True,False
15,2,202.55116769997403,circle,"(-480.0, -270.0)",0,864.6330999908969,864.6229000296444,True,False
15,2,202.56722979992628,circle,"(-480.0, -270.0)",0,880.6951999431476,880.6849999818951,True,False
15,2,202.58451379998587,circle,"(-480.0, -270.0)",0,897.9792000027373,897.9690000414848,True,False
15,2,202.60069769993424,circle,"(-480.0, -270.0)",0,914.1630999511108,914.1528999898583,True,False
15,2,202.61769220000133,circle,"(-480.0, -270.0)",0,931.1576000181958,931.1474000569433,True,False
15,2,202.63323379994836,circle,"(-480.0, -270.0)",0,946.6991999652237,946.6890000039712,True,False
15,2,202.65084669995122,circle,"(-480.0, -270.0)",0,964.3120999680832,964.3019000068307,True,False
15,2,202.6671164999716,circle,"(-480.0, -270.0)",0,980.581899988465,980.5717000272125,True,False
15,2,202.6843111999333,circle,"(-480.0, -270.0)",0,997.7765999501571,997.7663999889046,True,False
15,2,202.70017089997418,circle,"(-480.0, -270.0)",0,1013.6362999910489,1013.6261000297964,True,False
15,2,202.71761980000883,circle,"(-480.0, -270.0)",0,1031.0852000257,1031.0750000644475,True,False
15,2,202.73350209998898,circle,"(-480.0, -270.0)",0,1046.9675000058487,1046.9573000445962,True,False
15,2,202.7514090000186,circle,"(-480.0, -270.0)",0,1064.8744000354782,1064.8642000742257,True,False
15,2,202.76759719999973,circle,"(-480.0, -270.0)",0,1081.062600016594,1081.0524000553414,True,False
15,2,202.78467329998966,circle,"(-480.0, -270.0)",0,1098.1387000065297,1098.1285000452772,True,False
15,2,202.80091879994143,circle,"(-480.0, -270.0)",0,1114.3841999582946,1114.3739999970421,True,False
15,2,202.81812449998688,circle,"(-480.0, -270.0)",0,1131.5899000037462,1131.5797000424936,True,False
15,2,202.83328849996906,circle,"(-480.0, -270.0)",0,1146.7538999859244,1146.7437000246719,True,False
15,2,202.85126459994353,circle,"(-480.0, -270.0)",0,1164.7299999604002,1164.7197999991477,True,False
15,2,202.86848720000125,circle,"(-480.0, -270.0)",0,1181.9526000181213,1181.9424000568688,True,False
15,2,202.8858890000265,circle,"(-480.0, -270.0)",0,1199.3544000433758,1199.3442000821233,True,False
15,2,202.9012901999522,circle,"(-480.0, -270.0)",0,1214.7555999690667,1214.7454000078142,True,False
15,2,202.91814620001242,circle,"(-480.0, -270.0)",0,1231.6116000292823,1231.6014000680298,True,False
15,2,202.9336733999662,circle,"(-480.0, -270.0)",0,1247.1387999830768,1247.1286000218242,True,False
15,2,202.9516443000175,circle,"(-480.0, -270.0)",0,1265.1097000343725,1265.09950007312,True,False
15,2,202.96758219995536,circle,"(-480.0, -270.0)",0,1281.0475999722257,1281.0374000109732,True,False
15,2,202.98462729994208,circle,"(-480.0, -270.0)",0,1298.0926999589428,1298.0824999976903,True,False
15,2,203.0008250999963,circle,"(-480.0, -270.0)",0,1314.2905000131577,1314.2803000519052,True,False
15,2,203.01820900000166,circle,"(-480.0, -270.0)",0,1331.674400018528,1331.6642000572756,True,False
15,2,203.03421259997413,circle,"(-480.0, -270.0)",0,1347.6779999909922,1347.6678000297397,True,False
15,2,203.0515322999563,circle,"(-480.0, -270.0)",0,1364.9976999731734,1364.987500011921,True,False
15,2,203.0665508999955,circle,"(-480.0, -270.0)",0,1380.0163000123575,1380.006100051105,True,False
15,2,203.08458219992463,circle,"(-480.0, -270.0)",0,1398.047599941492,1398.0373999802396,True,False
15,2,203.09986539999954,circle,"(-480.0, -270.0)",0,1413.3308000164106,1413.3206000551581,True,False
15,2,203.1176443999866,circle,"(-480.0, -270.0)",0,1431.109800003469,1431.0996000422165,True,False
15,2,203.13333310000598,circle,"(-480.0, -270.0)",0,1446.798500022851,1446.7883000615984,True,False
15,2,203.15124599996489,circle,"(-480.0, -270.0)",0,1464.711399981752,1464.7012000204995,True,False
15,2,203.16796220000833,circle,"(-480.0, -270.0)",0,1481.4276000251994,1481.4174000639468,True,False
15,2,203.18477269995492,circle,"(-480.0, -270.0)",0,1498.2380999717861,1498.2279000105336,True,False
15,2,203.20067920000292,circle,"(-480.0, -270.0)",0,1514.1446000197902,1514.1344000585377,True,False
15,2,203.21766510000452,circle,"(-480.0, -270.0)",0,1531.1305000213906,1531.120300060138,True,False
15,2,203.23387609992642,circle,"(-480.0, -270.0)",0,1547.3414999432862,1547.3312999820337,True,False
15,2,203.25122159998864,circle,"(-480.0, -270.0)",0,1564.687000005506,1564.6768000442535,True,False
15,2,203.2662387000164,circle,"(-480.0, -270.0)",0,1579.7041000332683,1579.6939000720158,True,False
15,2,203.28421049995814,circle,"(-480.0, -270.0)",0,1597.6758999750018,1597.6657000137493,True,False
15,2,203.30015389993787,circle,"(-480.0, -270.0)",0,1613.6192999547347,1613.6090999934822,True,False
15,2,203.31731610000134,circle,"(-480.0, -270.0)",0,1630.7815000182018,1630.7713000569493,True,False
15,2,203.33288210001774,circle,"(-480.0, -270.0)",0,1646.347500034608,1646.3373000733554,True,False
15,2,203.3505571000278,circle,"(-480.0, -270.0)",0,1664.0225000446662,1664.0123000834137,True,False
15,2,203.36669789999723,circle,"(-480.0, -270.0)",0,1680.163300014101,1680.1531000528485,True,False
15,2,203.38429479999468,circle,"(-480.0, -270.0)",0,1697.760200011544,1697.7500000502914,True,False
15,2,203.40050709992647,circle,"(-480.0, -270.0)",0,1713.9724999433383,1713.9622999820858,True,False
15,2,203.41755559993908,circle,"(-480.0, -270.0)",0,1731.0209999559447,1731.0107999946922,True,False
15,2,203.43368220003322,circle,"(-480.0, -270.0)",0,1747.1476000500843,1747.1374000888318,True,False
15,2,203.45115209999494,circle,"(-480.0, -270.0)",0,1764.6175000118092,1764.6073000505567,True,False
15,2,203.46703780000098,circle,"(-480.0, -270.0)",0,1780.5032000178471,1780.4930000565946,True,False
15,2,203.4840908999322,circle,"(-480.0, -270.0)",0,1797.5562999490649,1797.5460999878123,True,False
15,2,204.81718509993516,cross,"(480.0, -270.0)",250.99410000257194,3130.6504999520257,3130.640299990773,False,True
15,3,205.95054390002042,cross,"(480.0, -270.0)",250.29500003438443,4264.009300037287,1133.3588000852615,True,False
15,3,205.9703998999903,cross,"(480.0, -270.0)",0,4283.8653000071645,1153.2148000551388,True,False
15,3,205.98372259992175,cross,"(480.0, -270.0)",0,4297.187999938615,1166.537499986589,True,False
15,3,205.99995720002335,cross,"(480.0, -270.0)",0,4313.422600040212,1182.7721000881866,True,False
15,3,206.02008659997955,cross,"(480.0, -270.0)",0,4333.551999996416,1202.9015000443906,True,False
15,3,206.03365979995579,cross,"(480.0, -270.0)",0,4347.125199972652,1216.4747000206262,True,False
15,3,206.05033330002334,cross,"(480.0, -270.0)",0,4363.798700040206,1233.1482000881806,True,False
15,3,206.0665632999735,cross,"(480.0, -270.0)",0,4380.028699990362,1249.3782000383362,True,False
15,3,206.08418290002737,cross,"(480.0, -270.0)",0,4397.648300044239,1266.9978000922129,True,False
15,3,206.09993209992535,cross,"(480.0, -270.0)",0,4413.397499942221,1282.746999990195,True,False
15,3,206.11733229993843,cross,"(480.0, -270.0)",0,4430.797699955292,1300.1472000032663,True,False
15,3,206.13356909994036,cross,"(480.0, -270.0)",0,4447.034499957226,1316.3840000052005,True,False
15,3,206.1507556999568,cross,"(480.0, -270.0)",0,4464.221099973656,1333.5706000216305,True,False
15,3,206.16683509992436,cross,"(480.0, -270.0)",0,4480.300499941222,1349.6499999891967,True,False
15,3,206.18356859998312,cross,"(480.0, -270.0)",0,4497.033999999985,1366.3835000479594,True,False
15,3,206.19932759995572,cross,"(480.0, -270.0)",0,4512.792999972589,1382.1425000205636,True,False
15,3,206.21612769993953,cross,"(480.0, -270.0)",0,4529.593099956401,1398.942600004375,True,False
15,3,206.23244199994951,cross,"(480.0, -270.0)",0,4545.9073999663815,1415.2569000143558,True,False
15,3,206.2496007999871,cross,"(480.0, -270.0)",0,4563.066200003959,1432.4157000519335,True,False
15,3,206.26528489997145,cross,"(480.0, -270.0)",0,4578.7502999883145,1448.0998000362888,True,False
15,3,206.28272000001743,cross,"(480.0, -270.0)",0,4596.185400034301,1465.5349000822753,True,False
15,3,206.29980859998614,cross,"(480.0, -270.0)",0,4613.274000003003,1482.6235000509769,True,False
15,3,206.31676880002487,cross,"(480.0, -270.0)",0,4630.234200041741,1499.5837000897154,True,False
15,3,206.33291699993424,cross,"(480.0, -270.0)",0,4646.382399951108,1515.731899999082,True,False
15,3,206.34980640001595,cross,"(480.0, -270.0)",0,4663.271800032817,1532.6213000807911,True,False
15,3,206.36624569993,cross,"(480.0, -270.0)",0,4679.711099946871,1549.0605999948457,True,False
15,3,206.3830212999601,cross,"(480.0, -270.0)",0,4696.486699976958,1565.8362000249326,True,False
15,3,206.39800029993057,cross,"(480.0, -270.0)",0,4711.465699947439,1580.8151999954134,True,False
15,3,206.41616829996929,cross,"(480.0, -270.0)",0,4729.633699986152,1598.9832000341266,True,False
15,3,206.4314558999613,cross,"(480.0, -270.0)",0,4744.921299978159,1614.2708000261337,True,False
15,3,206.44973450002726,cross,"(480.0, -270.0)",0,4763.199900044128,1632.5494000921026,True,False
15,3,206.46549249999225,cross,"(480.0, -270.0)",0,4778.957900009118,1648.3074000570923,True,False
15,3,206.4828709999565,cross,"(480.0, -270.0)",0,4796.33639997337,1665.6859000213444,True,False
15,3,206.49932219996117,cross,"(480.0, -270.0)",0,4812.787599978037,1682.1371000260115,True,False
15,3,206.51631360000465,cross,"(480.0, -270.0)",0,4829.779000021517,1699.1285000694916,True,False
15,3,206.53274039993994,cross,"(480.0, -270.0)",0,4846.205799956806,1715.5553000047803,True,False
15,3,206.5497378000291,cross,"(480.0, -270.0)",0,4863.203200045973,1732.5527000939474,True,False
15,3,206.56623220001347,cross,"(480.0, -270.0)",0,4879.69760003034,1749.0471000783145,True,False
15,3,206.58296309993602,cross,"(480.0, -270.0)",0,4896.42849995289,1765.7780000008643,True,False
15,3,210.38217879994772,circle,"(-480.0, -270.0)",267.0682999305427,8695.64419996459,5564.993700012565,False,True
15,4,212.1653929000022,cross,"(480.0, -270.0)",499.3264999939129,10478.858300019056,1783.2141000544652,False,True
16,1,216.28491729998495,circle,"(-480.0, -270.0)",0,0.011699972674250603,0.011699972674250603,False,True
16,2,217.0497215000214,circle,"(-480.0, -270.0)",269.0984000219032,764.8159000091255,764.8042000364512,True,False
16,2,217.0667603999609,circle,"(-480.0, -270.0)",0,781.8547999486327,781.8430999759585,True,False
16,2,217.08133439999074,circle,"(-480.0, -270.0)",0,796.4287999784574,796.4171000057831,True,False
16,2,217.0985948999878,circle,"(-480.0, -270.0)",0,813.6892999755219,813.6776000028476,True,False
16,2,217.11488369992003,circle,"(-480.0, -270.0)",0,829.9780999077484,829.9663999350742,True,False
16,2,217.12857009994332,circle,"(-480.0, -270.0)",0,843.6644999310374,843.6527999583632,True,False
16,2,217.14657280000392,circle,"(-480.0, -270.0)",0,861.6671999916434,861.6555000189692,True,False
16,2,217.16406310000457,circle,"(-480.0, -270.0)",0,879.1574999922886,879.1458000196144,True,False
16,2,217.18109309999272,circle,"(-480.0, -270.0)",0,896.1874999804422,896.175800007768,True,False
16,2,217.19710360001773,circle,"(-480.0, -270.0)",0,912.1980000054464,912.1863000327721,True,False
16,2,217.2134645000333,circle,"(-480.0, -270.0)",0,928.5589000210166,928.5472000483423,True,False
16,2,217.22994390001986,circle,"(-480.0, -270.0)",0,945.0383000075817,945.0266000349075,True,False
16,2,217.24720270000398,circle,"(-480.0, -270.0)",0,962.2970999917015,962.2854000190273,True,False
16,2,217.26368520001415,circle,"(-480.0, -270.0)",0,978.7796000018716,978.7679000291973,True,False
16,2,217.28055669995956,circle,"(-480.0, -270.0)",0,995.6510999472812,995.6393999746069,True,False
16,2,217.29686400003266,circle,"(-480.0, -270.0)",0,1011.9584000203758,1011.9467000477016,True,False
16,2,217.31420050002635,circle,"(-480.0, -270.0)",0,1029.2949000140652,1029.283200041391,True,False
16,2,217.3309458999429,circle,"(-480.0, -270.0)",0,1046.0402999306098,1046.0285999579355,True,False
16,2,217.34660159994382,circle,"(-480.0, -270.0)",0,1061.695999931544,1061.6842999588698,True,False
16,2,217.36299709999003,circle,"(-480.0, -270.0)",0,1078.0914999777451,1078.0798000050709,True,False
16,2,217.38037409994286,circle,"(-480.0, -270.0)",0,1095.4684999305755,1095.4567999579012,True,False
16,2,217.39709220000077,circle,"(-480.0, -270.0)",0,1112.1865999884903,1112.174900015816,True,False
16,2,217.41377580002882,circle,"(-480.0, -270.0)",0,1128.8702000165358,1128.8585000438616,True,False
16,2,217.4304404000286,circle,"(-480.0, -270.0)",0,1145.5348000163212,1145.523100043647,True,False
16,2,217.44742440001573,circle,"(-480.0, -270.0)",0,1162.518800003454,1162.5071000307798,True,False
16,2,217.46300849993713,circle,"(-480.0, -270.0)",0,1178.102899924852,1178.0911999521777,True,False
16,2,217.48066779994406,circle,"(-480.0, -270.0)",0,1195.762199931778,1195.7504999591038,True,False
16,2,217.49669800000265,circle,"(-480.0, -270.0)",0,1211.7923999903724,1211.780700017698,True,False
16,2,217.5133727999637,circle,"(-480.0, -270.0)",0,1228.4671999514103,1228.455499978736,True,False
16,2,217.52964429999702,circle,"(-480.0, -270.0)",0,1244.7386999847367,1244.7270000120625,True,False
16,2,217.54703679995146,circle,"(-480.0, -270.0)",0,1262.1311999391764,1262.1194999665022,True,False
16,2,217.56429589993786,circle,"(-480.0, -270.0)",0,1279.3902999255806,1279.3785999529064,True,False
16,2,217.58095620002132,circle,"(-480.0, -270.0)",0,1296.050600009039,1296.0389000363648,True,False
16,2,217.5964492999483,circle,"(-480.0, -270.0)",0,1311.54369993601,1311.5319999633357,True,False
16,2,217.61390699993353,circle,"(-480.0, -270.0)",0,1329.0013999212533,1328.989699948579,True,False
16,2,217.6294127999572,circle,"(-480.0, -270.0)",0,1344.5071999449283,1344.495499972254,True,False
16,2,217.64735819993075,circle,"(-480.0, -270.0)",0,1362.4525999184698,1362.4408999457955,True,False
16,2,217.6631148000015,circle,"(-480.0, -270.0)",0,1378.2091999892145,1378.1975000165403,True,False
16,2,217.68147109996062,circle,"(-480.0, -270.0)",0,1396.5654999483377,1396.5537999756634,True,False
16,2,217.6976717999205,circle,"(-480.0, -270.0)",0,1412.7661999082193,1412.754499935545,True,False
16,2,217.71435050002765,circle,"(-480.0, -270.0)",0,1429.444900015369,1429.4332000426948,True,False
16,2,217.7308170000324,circle,"(-480.0, -270.0)",0,1445.9114000201225,1445.8997000474483,True,False
16,2,217.74697440001182,circle,"(-480.0, -270.0)",0,1462.0687999995425,1462.0571000268683,True,False
16,2,217.76329449994955,circle,"(-480.0, -270.0)",0,1478.388899937272,1478.3771999645978,True,False
16,2,217.78056079999078,circle,"(-480.0, -270.0)",0,1495.6551999785006,1495.6435000058264,True,False
16,2,217.7973080999218,circle,"(-480.0, -270.0)",0,1512.4024999095127,1512.3907999368384,True,False
16,2,217.81379269994795,circle,"(-480.0, -270.0)",0,1528.8870999356732,1528.875399962999,True,False
16,2,217.83031939994544,circle,"(-480.0, -270.0)",0,1545.4137999331579,1545.4020999604836,True,False
16,2,217.84810649999417,circle,"(-480.0, -270.0)",0,1563.2008999818936,1563.1892000092193,True,False
16,2,217.8635035000043,circle,"(-480.0, -270.0)",0,1578.597899992019,1578.5862000193447,True,False
16,2,217.8810898999218,circle,"(-480.0, -270.0)",0,1596.1842999095097,1596.1725999368355,True,False
16,2,217.89694140001666,circle,"(-480.0, -270.0)",0,1612.035800004378,1612.0241000317037,True,False
16,2,217.91352609999012,circle,"(-480.0, -270.0)",0,1628.620499977842,1628.6088000051677,True,False
16,2,217.92959399998654,circle,"(-480.0, -270.0)",0,1644.6883999742568,1644.6767000015825,True,False
16,2,217.94932909996714,circle,"(-480.0, -270.0)",0,1664.4234999548644,1664.4117999821901,True,False
16,2,217.96403559995815,circle,"(-480.0, -270.0)",0,1679.1299999458715,1679.1182999731973,True,False
16,2,217.98129010002594,circle,"(-480.0, -270.0)",0,1696.3845000136644,1696.3728000409901,True,False
16,2,217.99653889995534,circle,"(-480.0, -270.0)",0,1711.6332999430597,1711.6215999703854,True,False
16,2,218.01387769996654,circle,"(-480.0, -270.0)",0,1728.9720999542624,1728.9603999815881,True,False
16,2,218.03005409997422,circle,"(-480.0, -270.0)",0,1745.1484999619424,1745.1367999892682,True,False
16,2,218.04768289998174,circle,"(-480.0, -270.0)",0,1762.777299969457,1762.7655999967828,True,False
16,2,218.06264010001905,circle,"(-480.0, -270.0)",0,1777.7345000067726,1777.7228000340983,True,False
16,2,219.1132219999563,star,"(-480.0, 270.0)",266.45749993622303,2828.316399944015,2828.3046999713406,False,True
16,3,219.37933349993546,star,"(-480.0, 270.0)",262.61849992442876,3094.4278999231756,266.1114999791607,True,False
16,3,219.39948629995342,star,"(-480.0, 270.0)",0,3114.5806999411434,286.26429999712855,True,False
16,3,219.41276750003453,star,"(-480.0, 270.0)",0,3127.8619000222534,299.54550007823855,True,False
16,3,219.43012459995225,star,"(-480.0, 270.0)",0,3145.2189999399707,316.9025999959558,True,False
16,3,219.44681480003055,star,"(-480.0, 270.0)",0,3161.909200018272,333.59280007425696,True,False
16,3,219.4639327999903,star,"(-480.0, 270.0)",0,3179.027199978009,350.710800033994,True,False
16,3,219.47996179992333,star,"(-480.0, 270.0)",0,3195.0561999110505,366.73979996703565,True,False
16,3,219.49607270001434,star,"(-480.0, 270.0)",0,3211.167100002058,382.850700058043,True,False
16,3,219.51373040000908,star,"(-480.0, 270.0)",0,3228.8247999968007,400.5084000527859,True,False
16,3,219.52968179993331,star,"(-480.0, 270.0)",0,3244.7761999210343,416.45979997701943,True,False
16,3,219.546214699978,star,"(-480.0, 270.0)",0,3261.309099965729,432.992700021714,True,False
16,3,219.56294510001317,star,"(-480.0, 270.0)",0,3278.0395000008866,449.7231000568718,True,False
16,3,219.58083019999322,star,"(-480.0, 270.0)",0,3295.9245999809355,467.6082000369206,True,False
16,3,219.59624709992204,star,"(-480.0, 270.0)",0,3311.3414999097586,483.0250999657437,True,False
16,3,219.6128053999273,star,"(-480.0, 270.0)",0,3327.8997999150306,499.58339997101575,True,False
16,3,219.6287561999634,star,"(-480.0, 270.0)",0,3343.850599951111,515.5342000070959,True,False
16,3,219.645831599948,star,"(-480.0, 270.0)",0,3360.9259999357164,532.6095999917015,True,False
16,3,219.6629037000239,star,"(-480.0, 270.0)",0,3377.9981000116095,549.6817000675946,True,False
16,3,219.68129640002735,star,"(-480.0, 270.0)",0,3396.3908000150695,568.0744000710547,True,False
16,3,219.69677329994738,star,"(-480.0, 270.0)",0,3411.867699935101,583.5512999910861,True,False
16,3,219.7140985999722,star,"(-480.0, 270.0)",0,3429.1929999599233,600.8766000159085,True,False
16,3,219.73087850003503,star,"(-480.0, 270.0)",0,3445.9729000227526,617.6565000787377,True,False
16,3,219.74718930001836,star,"(-480.0, 270.0)",0,3462.2837000060827,633.9673000620678,True,False
16,3,219.7632253000047,star,"(-480.0, 270.0)",0,3478.3196999924257,650.0033000484109,True,False
16,3,219.78043489996344,star,"(-480.0, 270.0)",0,3495.5292999511585,667.2129000071436,True,False
16,3,219.79667019995395,star,"(-480.0, 270.0)",0,3511.764599941671,683.448199997656,True,False
16,3,219.81329760001972,star,"(-480.0, 270.0)",0,3528.392000007443,700.0756000634283,True,False
16,3,219.82937289995607,star,"(-480.0, 270.0)",0,3544.46729994379,716.150899999775,True,False
16,3,219.8476587999612,star,"(-480.0, 270.0)",0,3562.7531999489293,734.4368000049144,True,False
16,3,219.86298720003106,star,"(-480.0, 270.0)",0,3578.081600018777,749.7652000747621,True,False
16,3,219.88098339992575,star,"(-480.0, 270.0)",0,3596.0777999134734,767.7613999694586,True,False
16,3,219.8954556999961,star,"(-480.0, 270.0)",0,3610.5500999838114,782.2337000397965,True,False
16,3,219.9138730999548,star,"(-480.0, 270.0)",0,3628.9674999425188,800.6510999985039,True,False
16,3,219.93124720000196,star,"(-480.0, 270.0)",0,3646.3415999896824,818.0252000456676,True,False
16,3,219.94708730001003,star,"(-480.0, 270.0)",0,3662.1816999977455,833.8653000537306,True,False
16,3,219.96333229995798,star,"(-480.0, 270.0)",0,3678.426699945703,850.1103000016883,True,False
16,3,219.98023480002303,star,"(-480.0, 270.0)",0,3695.3292000107467,867.0128000667319,True,False
16,3,219.99619149998762,star,"(-480.0, 270.0)",0,3711.285899975337,882.9695000313222,True,False
16,3,220.01478119997773,star,"(-480.0, 270.0)",0,3729.875599965453,901.5592000214383,True,False
16,3,220.03267590003088,star,"(-480.0, 270.0)",0,3747.770300018601,919.4539000745863,True,False
16,3,220.04713540000375,star,"(-480.0, 270.0)",0,3762.2297999914736,933.9134000474587,True,False
16,3,220.06286990002263,star,"(-480.0, 270.0)",0,3777.9643000103533,949.6479000663385,True,False
16,3,220.081028399989,star,"(-480.0, 270.0)",0,3796.122799976729,967.806400032714,True,False
16,3,220.09730209992267,star,"(-480.0, 270.0)",0,3812.396499910392,984.080099966377,True,False
16,3,220.11470429995097,star,"(-480.0, 270.0)",0,3829.798699938692,1001.4822999946773,True,False
16,3,220.13013419997878,star,"(-480.0, 270.0)",0,3845.2285999665037,1016.9122000224888,True,False
16,3,220.14619979995769,star,"(-480.0, 270.0)",0,3861.294199945405,1032.9778000013903,True,False
16,3,220.1624927999219,star,"(-480.0, 270.0)",0,3877.5871999096125,1049.2707999655977,True,False
16,3,220.1802730000345,star,"(-480.0, 270.0)",0,3895.3674000222236,1067.0510000782087,True,False
16,3,220.19628409994766,star,"(-480.0, 270.0)",0,3911.378499935381,1083.0620999913663,True,False
16,3,220.21363309992012,star,"(-480.0, 270.0)",0,3928.7274999078363,1100.4110999638215,True,False
16,3,220.22968140000012,star,"(-480.0, 270.0)",0,3944.7757999878377,1116.4594000438228,True,False
16,3,220.24635329993907,star,"(-480.0, 270.0)",0,3961.4476999267936,1133.1312999827787,True,False
16,3,220.26302780001424,star,"(-480.0, 270.0)",0,3978.1222000019625,1149.8058000579476,True,False
16,3,220.2808715000283,star,"(-480.0, 270.0)",0,3995.9659000160173,1167.6495000720024,True,False
16,3,220.29616639995947,star,"(-480.0, 270.0)",0,4011.2607999471948,1182.94440000318,True,False
16,3,220.31214749999344,star,"(-480.0, 270.0)",0,4027.2418999811634,1198.9255000371486,True,False
16,3,220.3285743999295,star,"(-480.0, 270.0)",0,4043.6687999172136,1215.3523999731988,True,False
16,3,220.34763340000063,star,"(-480.0, 270.0)",0,4062.7277999883518,1234.411400044337,True,False
16,3,220.362011399935,star,"(-480.0, 270.0)",0,4077.1057999227196,1248.7893999787048,True,False
16,3,220.37904399994295,star,"(-480.0, 270.0)",0,4094.138399930671,1265.821999986656,True,False
16,3,220.39529359992594,star,"(-480.0, 270.0)",0,4110.387999913655,1282.0715999696404,True,False
16,3,220.41293400002178,star,"(-480.0, 270.0)",0,4128.028400009498,1299.7120000654832,True,False
16,3,220.42953880003188,star,"(-480.0, 270.0)",0,4144.633200019598,1316.3168000755832,True,False
16,3,220.44688639999367,star,"(-480.0, 270.0)",0,4161.980799981393,1333.664400037378,True,False
16,3,220.4633205999853,star,"(-480.0, 270.0)",0,4178.414999973029,1350.098600029014,True,False
16,3,220.47992429998703,star,"(-480.0, 270.0)",0,4195.018699974753,1366.7023000307381,True,False
16,3,220.49624659994151,star,"(-480.0, 270.0)",0,4211.340999929234,1383.0245999852195,True,False
16,3,220.51429139997344,star,"(-480.0, 270.0)",0,4229.385799961165,1401.0694000171497,True,False
16,3,220.52844159991946,star,"(-480.0, 270.0)",0,4243.535999907181,1415.2195999631658,True,False
16,3,220.54773099999875,star,"(-480.0, 270.0)",0,4262.825399986468,1434.5090000424534,True,False
16,3,220.56226419995073,star,"(-480.0, 270.0)",0,4277.358599938452,1449.0421999944374,True,False
16,3,220.5799285999965,star,"(-480.0, 270.0)",0,4295.022999984212,1466.7066000401974,True,False
16,3,220.594968099962,star,"(-480.0, 270.0)",0,4310.062499949709,1481.7461000056937,True,False
16,3,220.61217620002571,star,"(-480.0, 270.0)",0,4327.270600013435,1498.95420006942,True,False
16,3,220.62986390001606,star,"(-480.0, 270.0)",0,4344.958300003782,1516.641900059767,True,False
16,3,220.6460220000008,star,"(-480.0, 270.0)",0,4361.116399988532,1532.8000000445172,True,False
16,3,220.66345300001558,star,"(-480.0, 270.0)",0,4378.547400003299,1550.2310000592843,True,False
16,3,220.68012979999185,star,"(-480.0, 270.0)",0,4395.224199979566,1566.9078000355512,True,False
16,3,220.6967695999192,star,"(-480.0, 270.0)",0,4411.863999906927,1583.5475999629125,True,False
16,3,220.7137443999527,star,"(-480.0, 270.0)",0,4428.838799940422,1600.5223999964073,True,False
16,3,220.7301293000346,star,"(-480.0, 270.0)",0,4445.223700022325,1616.90730007831,True,False
16,3,220.74720009998418,star,"(-480.0, 270.0)",0,4462.294499971904,1633.978100027889,True,False
16,3,220.7642064000247,star,"(-480.0, 270.0)",0,4479.300800012425,1650.9844000684097,True,False
16,3,220.77988619997632,star,"(-480.0, 270.0)",0,4494.9805999640375,1666.6642000200227,True,False
16,3,220.79668209992815,star,"(-480.0, 270.0)",0,4511.776499915868,1683.4600999718532,True,False
16,3,220.81308619992342,star,"(-480.0, 270.0)",0,4528.180599911138,1699.8641999671236,True,False
16,3,220.82802929996978,star,"(-480.0, 270.0)",0,4543.123699957505,1714.80730001349,True,False
16,3,220.84837299992796,star,"(-480.0, 270.0)",0,4563.46739991568,1735.1509999716654,True,False
16,3,220.86261740000919,star,"(-480.0, 270.0)",0,4577.711799996905,1749.3954000528902,True,False
16,3,220.8806088999845,star,"(-480.0, 270.0)",0,4595.703299972229,1767.3869000282139,True,False
16,3,222.61474320001435,t,"(480.0, 270.0)",253.5601999843493,6329.837600002065,3501.5212000580505,False,True
17,1,231.91381029994227,circle,"(-480.0, -270.0)",0,0.014399993233382702,0.014399993233382702,False,True
17,2,233.3418398000067,circle,"(-480.0, -270.0)",265.8110000193119,1428.0439000576735,1428.02950006444,True,False
17,2,233.36365650000516,circle,"(-480.0, -270.0)",0,1449.8606000561267,1449.8462000628933,True,False
17,2,233.3756710999878,circle,"(-480.0, -270.0)",0,1461.8752000387758,1461.8608000455424,True,False
17,2,233.39219069993123,circle,"(-480.0, -270.0)",0,1478.3947999821976,1478.3803999889642,True,False
17,2,233.41156379994936,circle,"(-480.0, -270.0)",0,1497.7679000003263,1497.753500007093,True,False
17,2,233.42442519997712,circle,"(-480.0, -270.0)",0,1510.6293000280857,1510.6149000348523,True,False
17,2,233.44394989998545,circle,"(-480.0, -270.0)",0,1530.1540000364184,1530.139600043185,True,False
17,2,233.4582236999413,circle,"(-480.0, -270.0)",0,1544.4277999922633,1544.41339999903,True,False
17,2,233.47600819997024,circle,"(-480.0, -270.0)",0,1562.2123000212014,1562.197900027968,True,False
17,2,233.4927175999619,circle,"(-480.0, -270.0)",0,1578.9217000128701,1578.9073000196368,True,False
17,2,233.50878389994614,circle,"(-480.0, -270.0)",0,1594.9879999971017,1594.9736000038683,True,False
17,2,233.5254755000351,circle,"(-480.0, -270.0)",0,1611.6796000860631,1611.6652000928298,True,False
17,2,233.54246639995836,circle,"(-480.0, -270.0)",0,1628.6705000093207,1628.6561000160873,True,False
17,2,233.5584930999903,circle,"(-480.0, -270.0)",0,1644.6972000412643,1644.682800048031,True,False
17,2,233.57548709993716,circle,"(-480.0, -270.0)",0,1661.6911999881268,1661.6767999948934,True,False
17,2,233.59245320002083,circle,"(-480.0, -270.0)",0,1678.6573000717908,1678.6429000785574,True,False
17,2,233.60856500000227,circle,"(-480.0, -270.0)",0,1694.769100053236,1694.7547000600025,True,False
17,2,233.62576890003402,circle,"(-480.0, -270.0)",0,1711.9730000849813,1711.958600091748,True,False
17,2,233.64192319998983,circle,"(-480.0, -270.0)",0,1728.1273000407964,1728.112900047563,True,False
17,2,233.65896539995447,circle,"(-480.0, -270.0)",0,1745.1695000054315,1745.155100012198,True,False
17,2,233.6770396999782,circle,"(-480.0, -270.0)",0,1763.2438000291586,1763.2294000359252,True,False
17,2,235.17611849994864,star,"(-480.0, 270.0)",250.12310000602156,3262.3225999996066,3262.308200006373,False,True
17,3,235.4409518999746,star,"(-480.0, 270.0)",261.81609998457134,3527.1560000255704,264.8334000259638,True,False
17,3,235.46009619999677,star,"(-480.0, 270.0)",0,3546.300300047733,283.9777000481263,True,False
17,3,235.47455329995137,star,"(-480.0, 270.0)",0,3560.7574000023305,298.43480000272393,True,False
17,3,235.49038309999742,star,"(-480.0, 270.0)",0,3576.5872000483796,314.264600048773,True,False
17,3,235.50718670000788,star,"(-480.0, 270.0)",0,3593.3908000588417,331.0682000592351,True,False
17,3,235.52585770003498,star,"(-480.0, 270.0)",0,3612.0618000859395,349.73920008633286,True,False
17,3,235.5414217999205,star,"(-480.0, 270.0)",0,3627.625899971463,365.3032999718562,True,False
17,3,235.55761409993283,star,"(-480.0, 270.0)",0,3643.818199983798,381.49559998419136,True,False
17,3,235.5748687000014,star,"(-480.0, 270.0)",0,3661.0728000523522,398.75020005274564,True,False
17,3,235.59114939998835,star,"(-480.0, 270.0)",0,3677.3535000393167,415.0309000397101,True,False
17,3,235.6079912999412,star,"(-480.0, 270.0)",0,3694.195399992168,431.87279999256134,True,False
17,3,235.62573119997978,star,"(-480.0, 270.0)",0,3711.9353000307456,449.61270003113896,True,False
17,3,235.64090360002592,star,"(-480.0, 270.0)",0,3727.1077000768855,464.7851000772789,True,False
17,3,235.65720050001983,star,"(-480.0, 270.0)",0,3743.4046000707895,481.08200007118285,True,False
17,3,235.67528079997282,star,"(-480.0, 270.0)",0,3761.484900023788,499.1623000241816,True,False
17,3,235.69198220002,star,"(-480.0, 270.0)",0,3778.1863000709563,515.8637000713497,True,False
17,3,235.709599899943,star,"(-480.0, 270.0)",0,3795.80399999395,533.4813999943435,True,False
17,3,235.7239128999645,star,"(-480.0, 270.0)",0,3810.1170000154525,547.7944000158459,True,False
17,3,235.74270790000446,star,"(-480.0, 270.0)",0,3828.912000055425,566.5894000558183,True,False
17,3,235.75776579999365,star,"(-480.0, 270.0)",0,3843.9699000446126,581.647300045006,True,False
17,3,235.7761935000308,star,"(-480.0, 270.0)",0,3862.3976000817493,600.0750000821427,True,False
17,3,235.7908239000244,star,"(-480.0, 270.0)",0,3877.02800007537,614.7054000757635,True,False
17,3,235.80826790002175,star,"(-480.0, 270.0)",0,3894.47200007271,632.1494000731036,True,False
17,3,235.82506940001622,star,"(-480.0, 270.0)",0,3911.273500067182,648.9509000675753,True,False
17,3,235.84103969996795,star,"(-480.0, 270.0)",0,3927.243800018914,664.9212000193074,True,False
17,3,235.85752039996441,star,"(-480.0, 270.0)",0,3943.724500015378,681.4019000157714,True,False
17,3,235.87496549997013,star,"(-480.0, 270.0)",0,3961.169600021094,698.8470000214875,True,False
17,3,235.89093150000554,star,"(-480.0, 270.0)",0,3977.1356000564992,714.8130000568926,True,False
17,3,235.90849800000433,star,"(-480.0, 270.0)",0,3994.7021000552922,732.3795000556856,True,False
17,3,235.92498919996433,star,"(-480.0, 270.0)",0,4011.193300015293,748.8707000156865,True,False
17,3,235.94187099998817,star,"(-480.0, 270.0)",0,4028.075100039132,765.7525000395253,True,False
17,3,235.95772900001612,star,"(-480.0, 270.0)",0,4043.933100067079,781.6105000674725,True,False
17,3,235.97581309999805,star,"(-480.0, 270.0)",0,4062.017200049013,799.6946000494063,True,False
17,3,235.99103299994022,star,"(-480.0, 270.0)",0,4077.23709999118,814.9144999915734,True,False
17,3,236.00790790002793,star,"(-480.0, 270.0)",0,4094.112000078894,831.7894000792876,True,False
17,3,236.02470529999118,star,"(-480.0, 270.0)",0,4110.909400042146,848.5868000425398,True,False
17,3,236.04239600000437,star,"(-480.0, 270.0)",0,4128.600100055337,866.2775000557303,True,False
17,3,236.05831709993072,star,"(-480.0, 270.0)",0,4144.521199981682,882.1985999820754,True,False
17,3,236.07542789995205,star,"(-480.0, 270.0)",0,4161.63200000301,899.3094000034034,True,False
17,3,236.08971810003277,star,"(-480.0, 270.0)",0,4175.922200083733,913.599600084126,True,False
17,3,236.10839189996477,star,"(-480.0, 270.0)",0,4194.596000015736,932.273400016129,True,False
17,3,236.12508090003394,star,"(-480.0, 270.0)",0,4211.285000084899,948.9624000852928,True,False
17,3,236.1420611999929,star,"(-480.0, 270.0)",0,4228.265300043859,965.942700044252,True,False
17,3,236.15803499997128,star,"(-480.0, 270.0)",0,4244.2391000222415,981.9165000226349,True,False
17,3,236.1742989999475,star,"(-480.0, 270.0)",0,4260.503099998459,998.1804999988526,True,False
17,3,236.18998879997525,star,"(-480.0, 270.0)",0,4276.192900026217,1013.8703000266105,True,False
17,3,236.2089486999903,star,"(-480.0, 270.0)",0,4295.152800041251,1032.8302000416443,True,False
17,3,236.22304609999992,star,"(-480.0, 270.0)",0,4309.250200050883,1046.9276000512764,True,False
17,3,236.24021989991888,star,"(-480.0, 270.0)",0,4326.4239999698475,1064.101399970241,True,False
17,3,236.2563781000208,star,"(-480.0, 270.0)",0,4342.582200071774,1080.2596000721678,True,False
17,3,236.2747895999346,star,"(-480.0, 270.0)",0,4360.993699985556,1098.6710999859497,True,False
17,3,236.29055099992547,star,"(-480.0, 270.0)",0,4376.755099976435,1114.4324999768287,True,False
17,3,236.30789659998845,star,"(-480.0, 270.0)",0,4394.100700039417,1131.77810003981,True,False
17,3,236.3237661999883,star,"(-480.0, 270.0)",0,4409.9703000392765,1147.6477000396699,True,False
17,3,236.3413616999751,star,"(-480.0, 270.0)",0,4427.565800026059,1165.2432000264525,True,False
17,3,236.35737059998792,star,"(-480.0, 270.0)",0,4443.57470003888,1181.2521000392735,True,False
17,3,236.3746837999206,star,"(-480.0, 270.0)",0,4460.887899971567,1198.5652999719605,True,False
17,3,236.39082670002244,star,"(-480.0, 270.0)",0,4477.030800073408,1214.708200073801,True,False
17,3,236.408992499928,star,"(-480.0, 270.0)",0,4495.196599978954,1232.873999979347,True,False
17,3,236.4229750999948,star,"(-480.0, 270.0)",0,4509.179200045764,1246.8566000461578,True,False
17,3,236.44235389993992,star,"(-480.0, 270.0)",0,4528.5579999908805,1266.2353999912739,True,False
17,3,236.45675459993072,star,"(-480.0, 270.0)",0,4542.958699981682,1280.6360999820754,True,False
17,3,236.47341939993203,star,"(-480.0, 270.0)",0,4559.62349998299,1297.3008999833837,True,False
17,3,236.4900331000099,star,"(-480.0, 270.0)",0,4576.237200060859,1313.9146000612527,True,False
17,3,236.50840789999347,star,"(-480.0, 270.0)",0,4594.612000044435,1332.2894000448287,True,False
17,3,236.5248798999237,star,"(-480.0, 270.0)",0,4611.083999974653,1348.7613999750465,True,False
17,3,236.54137120000087,star,"(-480.0, 270.0)",0,4627.575300051831,1365.252700052224,True,False
17,3,236.55835449998267,star,"(-480.0, 270.0)",0,4644.558600033633,1382.2360000340268,True,False
17,3,236.57534819992725,star,"(-480.0, 270.0)",0,4661.5522999782115,1399.229699978605,True,False
17,3,236.591298299958,star,"(-480.0, 270.0)",0,4677.502400008962,1415.179800009355,True,False
17,3,236.60900729999412,star,"(-480.0, 270.0)",0,4695.211400045082,1432.8888000454754,True,False
17,3,236.62340849998873,star,"(-480.0, 270.0)",0,4709.612600039691,1447.2900000400841,True,False
17,3,236.64218560000882,star,"(-480.0, 270.0)",0,4728.389700059779,1466.0671000601724,True,False
17,3,236.65658800001256,star,"(-480.0, 270.0)",0,4742.792100063525,1480.4695000639185,True,False
17,3,236.67588090000208,star,"(-480.0, 270.0)",0,4762.085000053048,1499.7624000534415,True,False
17,3,236.69086460000835,star,"(-480.0, 270.0)",0,4777.068700059317,1514.7461000597104,True,False
17,3,236.70775549998507,star,"(-480.0, 270.0)",0,4793.9596000360325,1531.637000036426,True,False
17,3,236.72356069996022,star,"(-480.0, 270.0)",0,4809.76480001118,1547.4422000115737,True,False
17,3,236.74158209993038,star,"(-480.0, 270.0)",0,4827.786199981347,1565.4635999817401,True,False
17,3,236.75771269993857,star,"(-480.0, 270.0)",0,4843.916799989529,1581.5941999899223,True,False
17,3,236.77477809996344,star,"(-480.0, 270.0)",0,4860.982200014405,1598.6596000147983,True,False
17,3,236.79082190000918,star,"(-480.0, 270.0)",0,4877.026000060141,1614.7034000605345,True,False
17,3,236.80811749992426,star,"(-480.0, 270.0)",0,4894.321599975228,1631.9989999756217,True,False
17,3,236.8244815999642,star,"(-480.0, 270.0)",0,4910.685700015165,1648.3631000155583,True,False
17,3,236.84096239996143,star,"(-480.0, 270.0)",0,4927.16650001239,1664.8439000127837,True,False
17,3,236.85828639997635,star,"(-480.0, 270.0)",0,4944.490500027314,1682.1679000277072,True,False
17,3,236.87565469997935,star,"(-480.0, 270.0)",0,4961.858800030313,1699.5362000307068,True,False
17,3,236.88981630001217,star,"(-480.0, 270.0)",0,4976.020400063135,1713.6978000635281,True,False
17,3,236.9091894000303,star,"(-480.0, 270.0)",0,4995.3935000812635,1733.0709000816569,True,False
17,3,236.9232672000071,star,"(-480.0, 270.0)",0,5009.471300058067,1747.1487000584602,True,False
17,3,236.94438100000843,star,"(-480.0, 270.0)",0,5030.5851000593975,1768.262500059791,True,False
17,3,237.8567967999261,circle,"(-480.0, -270.0)",267.44929992128164,5943.000899977051,2680.678299977444,False,True
17,4,241.08878989994992,star,"(-480.0, 270.0)",266.02759992238134,9174.99400000088,3231.9931000238284,False,True
