trial_num,selection_num,timestamp,shape,position,fixation_duration_ms,rt_from_trial_start_ms,rt_from_previous_selection_ms,queued_selection,was_executed
13,1,185.56198419997236,circle,"(-480.0, -270.0)",0,0.011699972674250603,0.011699972674250603,False,True
13,2,188.32557699998142,cross,"(480.0, -270.0)",265.01070003723726,2763.6044999817386,2763.5928000090644,False,True
13,3,188.59365080000134,cross,"(480.0, -270.0)",265.4236000380479,3031.6783000016585,268.0738000199199,True,False
13,3,188.61264509998728,cross,"(480.0, -270.0)",0,3050.6725999875925,287.0681000058539,True,False
13,3,188.62863699998707,cross,"(480.0, -270.0)",0,3066.6644999873824,303.0600000056438,True,False
13,3,188.64367729995865,cross,"(480.0, -270.0)",0,3081.7047999589704,318.10029997723177,True,False
13,3,188.66034389997367,cross,"(480.0, -270.0)",0,3098.371399973985,334.7668999922462,True,False
13,3,188.67732459999388,cross,"(480.0, -270.0)",0,3115.3520999941975,351.74760001245886,True,False
13,3,188.69379749998916,cross,"(480.0, -270.0)",0,3131.824999989476,368.2205000077374,True,False
13,3,188.7109754999983,cross,"(480.0, -270.0)",0,3149.002999998629,385.39850001689047,True,False
13,3,188.7267999999458,cross,"(480.0, -270.0)",0,3164.8274999461137,401.22299996437505,True,False
13,3,188.74312439997448,cross,"(480.0, -270.0)",0,3181.151899974793,417.54739999305457,True,False
13,3,188.7598977999878,cross,"(480.0, -270.0)",0,3197.9252999881282,434.3208000063896,True,False
13,3,188.7766063999734,cross,"(480.0, -270.0)",0,3214.6338999737054,451.0293999919668,True,False
13,3,188.7926331999479,cross,"(480.0, -270.0)",0,3230.660699948203,467.0561999664642,True,False
13,3,188.80921349994605,cross,"(480.0, -270.0)",0,3247.2409999463707,483.6364999646321,True,False
13,3,188.82644569996046,cross,"(480.0, -270.0)",0,3264.4731999607757,500.86869997903705,True,False
13,3,188.84295319998637,cross,"(480.0, -270.0)",0,3280.980699986685,517.3762000049464,True,False
13,3,188.86046309996163,cross,"(480.0, -270.0)",0,3298.4905999619514,534.8860999802127,True,False
13,3,188.8770394999883,cross,"(480.0, -270.0)",0,3315.0669999886304,551.4625000068918,True,False
13,3,188.8936864999705,cross,"(480.0, -270.0)",0,3331.713999970816,568.1094999890774,True,False
13,3,188.9104110999615,cross,"(480.0, -270.0)",0,3348.43859996181,584.8340999800712,True,False
13,3,188.92943409999134,cross,"(480.0, -270.0)",0,3367.461599991657,603.8571000099182,True,False
13,3,188.94386819994543,cross,"(480.0, -270.0)",0,3381.895699945744,618.2911999640055,True,False
13,3,188.95972389995586,cross,"(480.0, -270.0)",0,3397.751399956178,634.1468999744393,True,False
13,3,188.9773717999924,cross,"(480.0, -270.0)",0,3415.399299992714,651.7948000109755,True,False
13,3,188.99362749996362,cross,"(480.0, -270.0)",0,3431.654999963939,668.0504999822006,True,False
13,3,189.00894069997594,cross,"(480.0, -270.0)",0,3446.9681999762543,683.3636999945156,True,False
13,3,189.0256327999523,cross,"(480.0, -270.0)",0,3463.6602999526076,700.055799970869,True,False
13,3,189.04208379995544,cross,"(480.0, -270.0)",0,3480.1112999557517,716.5067999740131,True,False
13,3,189.05877359997248,cross,"(480.0, -270.0)",0,3496.8010999727994,733.1965999910608,True,False
13,3,189.07642219995614,cross,"(480.0, -270.0)",0,3514.449699956458,750.8451999747194,True,False
13,3,189.09275630000047,cross,"(480.0, -270.0)",0,3530.7838000007905,767.1793000190519,True,False
13,3,189.10967489995528,cross,"(480.0, -270.0)",0,3547.702399955597,784.0978999738581,True,False
13,3,189.12745199998608,cross,"(480.0, -270.0)",0,3565.4794999863952,801.8750000046566,True,False
13,3,189.14370009995764,cross,"(480.0, -270.0)",0,3581.727599957958,818.1230999762192,True,False
13,3,189.16046029998688,cross,"(480.0, -270.0)",0,3598.487799987197,834.8833000054583,True,False
13,3,189.17707299999893,cross,"(480.0, -270.0)",0,3615.1004999992438,851.4960000175051,True,False
13,3,189.19376719999127,cross,"(480.0, -270.0)",0,3631.7946999915875,868.1902000098489,True,False
13,3,189.20990769995842,cross,"(480.0, -270.0)",0,3647.935199958738,884.3306999769993,True,False
13,3,189.22677909996128,cross,"(480.0, -270.0)",0,3664.8065999615937,901.2020999798551,True,False
13,3,189.2432774999761,cross,"(480.0, -270.0)",0,3681.304999976419,917.7004999946803,True,False
13,3,189.25931279995712,cross,"(480.0, -270.0)",0,3697.340299957432,933.7357999756932,True,False
13,3,189.27557489997707,cross,"(480.0, -270.0)",0,3713.6023999773897,949.9978999956511,True,False
13,3,189.29276909999317,cross,"(480.0, -270.0)",0,3730.7965999934822,967.1921000117436,True,False
13,3,189.30923109996365,cross,"(480.0, -270.0)",0,3747.2585999639705,983.6540999822319,True,False
13,3,189.32643879996613,cross,"(480.0, -270.0)",0,3764.4662999664433,1000.8617999847047,True,False
13,3,189.34308279998368,cross,"(480.0, -270.0)",0,3781.110299983993,1017.5058000022545,True,False
13,3,189.35934460000135,cross,"(480.0, -270.0)",0,3797.3721000016667,1033.767600019928,True,False
13,3,189.37717009999324,cross,"(480.0, -270.0)",0,3815.197599993553,1051.5931000118144,True,False
13,3,189.3935169999604,cross,"(480.0, -270.0)",0,3831.544499960728,1067.9399999789894,True,False
13,3,189.4103116999613,cross,"(480.0, -270.0)",0,3848.3391999616288,1084.7346999798901,True,False
13,3,189.42645359999733,cross,"(480.0, -270.0)",0,3864.481099997647,1100.8766000159085,True,False
13,3,189.44318709999789,cross,"(480.0, -270.0)",0,3881.214599998202,1117.6101000164635,True,False
13,3,189.4598484999733,cross,"(480.0, -270.0)",0,3897.875999973621,1134.2714999918826,True,False
13,3,189.4766335999593,cross,"(480.0, -270.0)",0,3914.6610999596305,1151.056599977892,True,False
13,3,189.49309569998877,cross,"(480.0, -270.0)",0,3931.123199989088,1167.5187000073493,True,False
13,3,189.50836479995633,cross,"(480.0, -270.0)",0,3946.392299956642,1182.7877999749035,True,False
13,3,189.53242029994726,cross,"(480.0, -270.0)",0,3970.4477999475785,1206.8432999658398,True,False
13,3,189.54241759999422,cross,"(480.0, -270.0)",0,3980.44509999454,1216.8406000128016,True,False
13,3,189.55880889995024,cross,"(480.0, -270.0)",0,3996.8363999505527,1233.231899968814,True,False
13,3,189.57529369997792,cross,"(480.0, -270.0)",0,4013.321199978236,1249.7166999964975,True,False
13,3,189.59266789996764,cross,"(480.0, -270.0)",0,4030.6953999679536,1267.090899986215,True,False
13,3,189.6105943999719,cross,"(480.0, -270.0)",0,4048.621899972204,1285.0173999904655,True,False
13,3,189.62709689995972,cross,"(480.0, -270.0)",0,4065.124399960041,1301.5198999783024,True,False
13,3,189.64366279996466,cross,"(480.0, -270.0)",0,4081.6902999649756,1318.085799983237,True,False
13,3,189.6599626999814,cross,"(480.0, -270.0)",0,4097.990199981723,1334.3856999999844,True,False
13,3,189.6764448999893,cross,"(480.0, -270.0)",0,4114.472399989609,1350.86790000787,True,False
13,3,189.69288569997298,cross,"(480.0, -270.0)",0,4130.913199973293,1367.308699991554,True,False
13,3,189.70986809994793,cross,"(480.0, -270.0)",0,4147.895599948242,1384.2910999665037,True,False
13,3,189.7264946999494,cross,"(480.0, -270.0)",0,4164.522199949715,1400.9176999679767,True,False
13,3,189.7417033999809,cross,"(480.0, -270.0)",0,4179.730899981223,1416.1263999994844,True,False
13,3,189.7606897999649,cross,"(480.0, -270.0)",0,4198.71729996521,1435.1127999834716,True,False
13,3,189.7751111999969,cross,"(480.0, -270.0)",0,4213.1386999972165,1449.5342000154778,True,False
13,3,189.7920121999923,cross,"(480.0, -270.0)",0,4230.039699992631,1466.435200010892,True,False
13,3,189.80871909996495,cross,"(480.0, -270.0)",0,4246.746599965263,1483.1420999835245,True,False
13,3,189.8263503999915,cross,"(480.0, -270.0)",0,4264.377899991814,1500.7734000100754,True,False
13,3,189.84395699994639,cross,"(480.0, -270.0)",0,4281.984499946702,1518.3799999649636,True,False
13,3,189.86023389996262,cross,"(480.0, -270.0)",0,4298.261399962939,1534.6568999812007,True,False
13,3,189.8767251999816,cross,"(480.0, -270.0)",0,4314.752699981909,1551.1482000001706,True,False
13,3,189.89333649998298,cross,"(480.0, -270.0)",0,4331.363999983296,1567.7595000015572,True,False
13,3,189.90961039997637,cross,"(480.0, -270.0)",0,4347.637899976689,1584.0333999949507,True,False
13,3,189.92691839998588,cross,"(480.0, -270.0)",0,4364.945899986196,1601.3414000044577,True,False
13,3,189.94181509996997,cross,"(480.0, -270.0)",0,4379.842599970289,1616.23809998855,True,False
13,3,189.95992519997526,cross,"(480.0, -270.0)",0,4397.952699975576,1634.3481999938376,True,False
13,3,189.97517239995068,cross,"(480.0, -270.0)",0,4413.199899950996,1649.5953999692574,True,False
13,3,189.99204669997562,cross,"(480.0, -270.0)",0,4430.074199975934,1666.4696999941953,True,False
13,3,190.00981540000066,cross,"(480.0, -270.0)",0,4447.842900000978,1684.2384000192396,True,False
13,3,190.02583479997702,cross,"(480.0, -270.0)",0,4463.862299977336,1700.2577999955975,True,False
13,3,190.0421855999739,cross,"(480.0, -270.0)",0,4480.213099974208,1716.608599992469,True,False
13,3,190.0598384999903,cross,"(480.0, -270.0)",0,4497.8659999906085,1734.26150000887,True,False
13,3,190.07711629994446,cross,"(480.0, -270.0)",0,4515.143799944781,1751.5392999630421,True,False
13,3,190.09359409997705,cross,"(480.0, -270.0)",0,4531.62159997737,1768.0170999956317,True,False
13,3,190.11000219994457,cross,"(480.0, -270.0)",0,4548.029699944891,1784.4251999631524,True,False
13,3,191.35959789995104,circle,"(-480.0, -270.0)",250.31769997440279,5797.625399951357,3034.0208999696188,False,True
14,1,200.65777579997666,circle,"(-480.0, -270.0)",0,0.01160003012046218,0.01160003012046218,False,True
14,2,202.17263349995483,circle,"(-480.0, -270.0)",250.8041999535635,1514.8693000082858,1514.8576999781653,True,False
14,2,202.19083799998043,circle,"(-480.0, -270.0)",0,1533.0738000338897,1533.0622000037692,True,False
14,2,202.205496999959,circle,"(-480.0, -270.0)",0,1547.7328000124544,1547.721199982334,True,False
14,2,202.22190889995545,circle,"(-480.0, -270.0)",0,1564.1447000089101,1564.1330999787897,True,False
14,2,202.23953799996525,circle,"(-480.0, -270.0)",0,1581.7738000187092,1581.7621999885887,True,False
14,2,202.2558427999611,circle,"(-480.0, -270.0)",0,1598.07860001456,1598.0669999844395,True,False
14,2,202.27239259995986,circle,"(-480.0, -270.0)",0,1614.6284000133164,1614.616799983196,True,False
14,2,202.2894683999475,circle,"(-480.0, -270.0)",0,1631.7042000009678,1631.6925999708474,True,False
14,2,202.305778799986,circle,"(-480.0, -270.0)",0,1648.0146000394598,1648.0030000093393,True,False
14,2,202.3227646999876,circle,"(-480.0, -270.0)",0,1665.0005000410601,1664.9889000109397,True,False
14,2,202.33948759996565,circle,"(-480.0, -270.0)",0,1681.7234000191092,1681.7117999889888,True,False
14,2,202.35576719994424,circle,"(-480.0, -270.0)",0,1698.0029999976978,1697.9913999675773,True,False
14,2,202.37180539994733,circle,"(-480.0, -270.0)",0,1714.0412000007927,1714.0295999706723,True,False
14,2,202.38881609996315,circle,"(-480.0, -270.0)",0,1731.0519000166096,1731.0402999864891,True,False
14,2,202.4051930999849,circle,"(-480.0, -270.0)",0,1747.4289000383578,1747.4173000082374,True,False
14,2,202.42168439994566,circle,"(-480.0, -270.0)",0,1763.92019999912,1763.9085999689996,True,False
15,1,214.65175299998373,circle,"(-480.0, -270.0)",0,0.011400028597563505,0.011400028597563505,False,True
15,2,214.91798719996586,cross,"(480.0, -270.0)",264.3067999742925,266.24560001073405,266.2341999821365,True,False
15,2,214.93751849996625,cross,"(480.0, -270.0)",0,285.7769000111148,285.7654999825172,True,False
15,2,214.9510882999748,cross,"(480.0, -270.0)",0,299.3467000196688,299.3352999910712,True,False
15,2,214.96781149995513,cross,"(480.0, -270.0)",0,316.06990000000224,316.0584999714047,True,False
15,2,214.98419529997045,cross,"(480.0, -270.0)",0,332.4537000153214,332.4422999867238,True,False
15,2,215.00176590000046,cross,"(480.0, -270.0)",0,350.0243000453338,350.01290001673624,True,False
15,2,215.01853349996964,cross,"(480.0, -270.0)",0,366.7919000145048,366.7804999859072,True,False
15,2,215.03520009998465,cross,"(480.0, -270.0)",0,383.4585000295192,383.44710000092164,True,False
15,2,215.05122439999832,cross,"(480.0, -270.0)",0,399.48280004318804,399.4714000145905,True,False
15,2,215.06795919995056,cross,"(480.0, -270.0)",0,416.2175999954343,416.2061999668367,True,False
15,2,215.0896284999908,cross,"(480.0, -270.0)",0,437.88690003566444,437.8755000070669,True,False
15,2,215.0999707999872,cross,"(480.0, -270.0)",0,448.229200032074,448.21780000347644,True,False
15,2,215.11797059996752,cross,"(480.0, -270.0)",0,466.2290000123903,466.21759998379275,True,False
15,2,215.1332556999987,cross,"(480.0, -270.0)",0,481.51410004356876,481.5027000149712,True,False
15,2,215.15164949995233,cross,"(480.0, -270.0)",0,499.9078999971971,499.8964999685995,True,False
15,2,215.16697979997844,cross,"(480.0, -270.0)",0,515.2382000233047,515.2267999947071,True,False
15,2,215.18394189997343,cross,"(480.0, -270.0)",0,532.2003000183031,532.1888999897055,True,False
15,2,215.20038629998453,cross,"(480.0, -270.0)",0,548.6447000293992,548.6333000008017,True,False
15,2,215.2178715999471,cross,"(480.0, -270.0)",0,566.129999991972,566.1185999633744,True,False
15,2,215.23442539997632,cross,"(480.0, -270.0)",0,582.6838000211865,582.6723999925889,True,False
15,2,215.25097399996594,cross,"(480.0, -270.0)",0,599.2324000108056,599.220999982208,True,False
15,2,215.2688041999936,cross,"(480.0, -270.0)",0,617.06260003848,617.0512000098825,True,False
15,2,215.28498050000053,cross,"(480.0, -270.0)",0,633.2389000453986,633.2275000168011,True,False
15,2,215.30148999998346,cross,"(480.0, -270.0)",0,649.7484000283293,649.7369999997318,True,False
15,2,215.31825799995568,cross,"(480.0, -270.0)",0,666.5164000005461,666.5049999719486,True,False
15,2,215.33503209997434,cross,"(480.0, -270.0)",0,683.2905000192113,683.2790999906138,True,False
15,2,215.35159129998647,cross,"(480.0, -270.0)",0,699.8497000313364,699.8383000027388,True,False
15,2,215.35333459998947,circle,"(-480.0, -270.0)",262.01840001158416,701.593000034336,701.5816000057384,True,False
15,2,215.3712520999834,circle,"(-480.0, -270.0)",0,719.5105000282638,719.4990999996662,True,False
15,2,215.38401629996952,circle,"(-480.0, -270.0)",0,732.2747000143863,732.2632999857888,True,False
15,2,215.40158039995003,circle,"(-480.0, -270.0)",0,749.8387999949045,749.827399966307,True,False
15,2,215.41712179995375,circle,"(-480.0, -270.0)",0,765.3801999986172,765.3687999700196,True,False
15,2,215.43400129996007,circle,"(-480.0, -270.0)",0,782.2597000049427,782.2482999763452,True,False
15,2,215.45059109997237,circle,"(-480.0, -270.0)",0,798.8495000172406,798.8380999886431,True,False
15,2,215.46780259994557,circle,"(-480.0, -270.0)",0,816.0609999904409,816.0495999618433,True,False
15,2,215.48384259996237,circle,"(-480.0, -270.0)",0,832.101000007242,832.0895999786444,True,False
15,2,215.50089989998378,circle,"(-480.0, -270.0)",0,849.1583000286482,849.1469000000507,True,False
15,2,215.5185568999732,circle,"(-480.0, -270.0)",0,866.815300018061,866.8038999894634,True,False
15,2,215.53500009997515,circle,"(-480.0, -270.0)",0,883.2585000200197,883.2470999914221,True,False
15,2,215.55171579995658,circle,"(-480.0, -270.0)",0,899.9742000014521,899.9627999728546,True,False
15,2,215.56862879998516,circle,"(-480.0, -270.0)",0,916.8872000300325,916.875800001435,True,False
15,2,215.58537389995763,circle,"(-480.0, -270.0)",0,933.6323000025004,933.6208999739029,True,False
15,2,215.6015999999945,circle,"(-480.0, -270.0)",0,949.8584000393748,949.8470000107773,True,False
15,2,215.6187110999599,circle,"(-480.0, -270.0)",0,966.9695000047795,966.958099976182,True,False
15,2,215.63486890000058,circle,"(-480.0, -270.0)",0,983.127300045453,983.1159000168554,True,False
15,2,215.6502182999975,circle,"(-480.0, -270.0)",0,998.4767000423744,998.4653000137769,True,False
15,2,215.6676155999885,circle,"(-480.0, -270.0)",0,1015.8740000333637,1015.8626000047661,True,False
15,2,215.6700162999914,cross,"(480.0, -270.0)",266.4626000332646,1018.2747000362724,1018.2633000076748,True,False
15,2,215.68677109997952,cross,"(480.0, -270.0)",0,1035.0295000243932,1035.0180999957956,True,False
15,2,215.70061649999116,cross,"(480.0, -270.0)",0,1048.8749000360258,1048.8635000074282,True,False
15,2,215.71718689997215,cross,"(480.0, -270.0)",0,1065.4453000170179,1065.4338999884203,True,False
15,2,215.73393239994766,cross,"(480.0, -270.0)",0,1082.1907999925315,1082.179399963934,True,False
15,2,215.75052589998813,cross,"(480.0, -270.0)",0,1098.784300033003,1098.7729000044055,True,False
15,2,215.76745369995479,cross,"(480.0, -270.0)",0,1115.712099999655,1115.7006999710575,True,False
15,2,215.78533459996106,cross,"(480.0, -270.0)",0,1133.5930000059307,1133.581599977333,True,False
15,2,215.80177329998696,cross,"(480.0, -270.0)",0,1150.0317000318319,1150.0203000032343,True,False
15,2,215.81825499999104,cross,"(480.0, -270.0)",0,1166.5134000359103,1166.5020000073127,True,False
15,2,215.83488769998075,cross,"(480.0, -270.0)",0,1183.146100025624,1183.1346999970265,True,False
15,2,215.85146069998154,cross,"(480.0, -270.0)",0,1199.7191000264138,1199.7076999978162,True,False
15,2,215.8680324999732,cross,"(480.0, -270.0)",0,1216.2909000180662,1216.2794999894686,True,False
15,2,215.88518699997803,cross,"(480.0, -270.0)",0,1233.4454000229016,1233.433999994304,True,False
15,2,215.90177989995573,cross,"(480.0, -270.0)",0,1250.0383000005968,1250.0268999719992,True,False
15,2,215.91867129999446,cross,"(480.0, -270.0)",0,1266.9297000393271,1266.9183000107296,True,False
15,2,215.93374319997383,cross,"(480.0, -270.0)",0,1282.0016000187024,1281.9901999901049,True,False
15,2,215.95128719997592,cross,"(480.0, -270.0)",0,1299.5456000207923,1299.5341999921948,True,False
15,2,215.96875609998824,cross,"(480.0, -270.0)",0,1317.0145000331104,1317.0031000045128,True,False
15,2,215.98407549998956,cross,"(480.0, -270.0)",0,1332.3339000344276,1332.32250000583,True,False
15,2,216.00085269997362,cross,"(480.0, -270.0)",0,1349.11110001849,1349.0996999898925,True,False
15,2,216.01719139999477,cross,"(480.0, -270.0)",0,1365.4498000396416,1365.438400011044,True,False
15,2,216.03467919997638,cross,"(480.0, -270.0)",0,1382.9376000212505,1382.926199992653,True,False
15,2,216.05140339996433,cross,"(480.0, -270.0)",0,1399.6618000091985,1399.650399980601,True,False
15,2,216.06808449997334,cross,"(480.0, -270.0)",0,1416.3429000182077,1416.3314999896102,True,False
15,2,216.0850031999871,cross,"(480.0, -270.0)",0,1433.261600031983,1433.2502000033855,True,False
15,2,216.10139519994846,cross,"(480.0, -270.0)",0,1449.6535999933258,1449.6421999647282,True,False
15,2,216.11814330000198,cross,"(480.0, -270.0)",0,1466.4017000468448,1466.3903000182472,True,False
15,2,216.13380349997897,cross,"(480.0, -270.0)",0,1482.0619000238366,1482.050499995239,True,False
15,2,216.14999309997074,cross,"(480.0, -270.0)",0,1498.2515000156127,1498.2400999870151,True,False
15,2,216.16701289999764,cross,"(480.0, -270.0)",0,1515.2713000425138,1515.2599000139162,True,False
15,2,216.1880991999642,cross,"(480.0, -270.0)",0,1536.3576000090688,1536.3461999804713,True,False
15,2,216.20107359997928,cross,"(480.0, -270.0)",0,1549.332000024151,1549.3205999955535,True,False
15,2,216.21743079996668,cross,"(480.0, -270.0)",0,1565.6892000115477,1565.67779998295,True,False
15,2,216.23472489998676,cross,"(480.0, -270.0)",0,1582.9833000316285,1582.971900003031,True,False
15,2,216.2513300999999,cross,"(480.0, -270.0)",0,1599.5885000447743,1599.5771000161767,True,False
15,2,216.26803379994817,cross,"(480.0, -270.0)",0,1616.2921999930404,1616.2807999644428,True,False
15,2,216.28461919998517,cross,"(480.0, -270.0)",0,1632.8776000300422,1632.8662000014447,True,False
15,2,216.30137770000147,cross,"(480.0, -270.0)",0,1649.6361000463367,1649.624700017739,True,False
15,2,216.3181727999472,cross,"(480.0, -270.0)",0,1666.4311999920756,1666.419799963478,True,False
15,2,216.3349938999745,cross,"(480.0, -270.0)",0,1683.252300019376,1683.2408999907784,True,False
15,2,216.35124229994835,cross,"(480.0, -270.0)",0,1699.500699993223,1699.4892999646254,True,False
15,2,216.3681968000019,cross,"(480.0, -270.0)",0,1716.4552000467665,1716.443800018169,True,False
15,2,216.3829485999886,cross,"(480.0, -270.0)",0,1731.2070000334643,1731.1956000048667,True,False
15,2,216.40090670000063,cross,"(480.0, -270.0)",0,1749.1651000455022,1749.1537000169046,True,False
15,2,216.41676269995514,cross,"(480.0, -270.0)",0,1765.0211000000127,1765.009699971415,True,False
15,2,216.4333723000018,cross,"(480.0, -270.0)",0,1781.6307000466622,1781.6193000180647,True,False
15,2,216.44991629995639,cross,"(480.0, -270.0)",0,1798.1747000012547,1798.1632999726571,True,False
15,2,217.55084059998626,cross,"(480.0, -270.0)",266.49420004105195,2899.0990000311285,2899.087600002531,False,True
15,3,217.81768399995053,cross,"(480.0, -270.0)",264.07679996918887,3165.9423999954015,266.843399964273,True,False
15,3,217.83591379999416,cross,"(480.0, -270.0)",0,3184.172200039029,285.0732000079006,True,False
15,3,217.85066969995387,cross,"(480.0, -270.0)",0,3198.9280999987386,299.8290999676101,True,False
15,3,217.8673915999825,cross,"(480.0, -270.0)",0,3215.650000027381,316.55099999625236,True,False
15,3,217.8840711999801,cross,"(480.0, -270.0)",0,3232.3296000249684,333.23059999383986,True,False
15,3,217.90030839998508,cross,"(480.0, -270.0)",0,3248.5668000299484,349.4677999988198,True,False
15,3,217.9169643999776,cross,"(480.0, -270.0)",0,3265.222800022457,366.12379999132827,True,False
15,3,217.93361589999404,cross,"(480.0, -270.0)",0,3281.8743000389077,382.77530000777915,True,False
15,3,217.95027499995194,cross,"(480.0, -270.0)",0,3298.5333999968134,399.43439996568486,True,False
15,3,217.96690159995342,cross,"(480.0, -270.0)",0,3315.1599999982864,416.06099996715784,True,False
15,3,217.98364369996125,cross,"(480.0, -270.0)",0,3331.9021000061184,432.8030999749899,True,False
15,3,217.9989826999954,cross,"(480.0, -270.0)",0,3347.2411000402644,448.1421000091359,True,False
15,3,218.01751389994752,cross,"(480.0, -270.0)",0,3365.7722999923863,466.6732999612577,True,False
15,3,218.03267879999476,cross,"(480.0, -270.0)",0,3380.937200039625,481.83820000849664,True,False
15,3,218.04941449995385,cross,"(480.0, -270.0)",0,3397.6728999987245,498.57389996759593,True,False
15,3,218.06657460000133,cross,"(480.0, -270.0)",0,3414.833000046201,515.7340000150725,True,False
15,3,218.08436739997705,cross,"(480.0, -270.0)",0,3432.625800021924,533.5267999907956,True,False
15,3,218.10086269996827,cross,"(480.0, -270.0)",0,3449.1211000131443,550.0220999820158,True,False
15,3,218.11774679995142,cross,"(480.0, -270.0)",0,3466.005199996289,566.9061999651603,True,False
15,3,218.13450449996162,cross,"(480.0, -270.0)",0,3482.7629000064917,583.6638999753632,True,False
15,3,218.15093720000004,cross,"(480.0, -270.0)",0,3499.1956000449136,600.0966000137851,True,False
15,3,218.16725519998,cross,"(480.0, -270.0)",0,3515.5136000248604,616.4145999937318,True,False
15,3,218.18429079995258,cross,"(480.0, -270.0)",0,3532.5491999974474,633.4501999663189,True,False
15,3,218.2009842999978,cross,"(480.0, -270.0)",0,3549.2427000426687,650.1437000115402,True,False
15,3,218.21767659997568,cross,"(480.0, -270.0)",0,3565.935000020545,666.8359999894165,True,False
15,3,218.2327379999915,cross,"(480.0, -270.0)",0,3580.9964000363834,681.8974000052549,True,False
15,3,218.250762199983,cross,"(480.0, -270.0)",0,3599.0206000278704,699.9215999967419,True,False
15,3,218.26715319999494,cross,"(480.0, -270.0)",0,3615.411600039806,716.3126000086777,True,False
15,3,218.28291739994893,cross,"(480.0, -270.0)",0,3631.175799993798,732.0767999626696,True,False
15,3,218.2995920999674,cross,"(480.0, -270.0)",0,3647.8505000122823,748.7514999811538,True,False
15,3,218.31635849998565,cross,"(480.0, -270.0)",0,3664.6169000305235,765.517899999395,True,False
15,3,218.33335219998844,cross,"(480.0, -270.0)",0,3681.6106000333093,782.5116000021808,True,False
15,3,218.35061239998322,cross,"(480.0, -270.0)",0,3698.8708000280894,799.7717999969609,True,False
15,3,218.36721939995186,cross,"(480.0, -270.0)",0,3715.4777999967337,816.3787999656051,True,False
15,3,218.38343439996243,cross,"(480.0, -270.0)",0,3731.692800007295,832.5937999761663,True,False
15,3,218.400136799959,cross,"(480.0, -270.0)",0,3748.39520000387,849.2961999727413,True,False
15,3,218.4168071000022,cross,"(480.0, -270.0)",0,3765.065500047058,865.9665000159293,True,False
15,3,218.4334705999936,cross,"(480.0, -270.0)",0,3781.7290000384673,882.6300000073388,True,False
15,3,218.45013159996597,cross,"(480.0, -270.0)",0,3798.3900000108406,899.2909999797121,True,False
15,3,218.46757729997626,cross,"(480.0, -270.0)",0,3815.8357000211254,916.7366999899969,True,False
15,3,218.48426469997503,cross,"(480.0, -270.0)",0,3832.5231000198983,933.4240999887697,True,False
15,3,218.5005722999922,cross,"(480.0, -270.0)",0,3848.8307000370696,949.7317000059411,True,False
15,3,218.5172523999936,cross,"(480.0, -270.0)",0,3865.5108000384644,966.4118000073358,True,False
15,3,218.5339761999785,cross,"(480.0, -270.0)",0,3882.2346000233665,983.135599992238,True,False
15,3,218.5493915999541,cross,"(480.0, -270.0)",0,3897.6499999989755,998.550999967847,True,False
15,3,218.56683669995982,cross,"(480.0, -270.0)",0,3915.0951000046916,1015.9960999735631,True,False
15,3,218.5830042999587,cross,"(480.0, -270.0)",0,3931.262700003572,1032.1636999724433,True,False
15,3,218.5996838999563,cross,"(480.0, -270.0)",0,3947.9423000011593,1048.8432999700308,True,False
15,3,218.6163385999971,cross,"(480.0, -270.0)",0,3964.5970000419766,1065.498000010848,True,False
15,3,218.63241339998785,cross,"(480.0, -270.0)",0,3980.6718000327237,1081.5728000015952,True,False
15,3,218.6508583999821,cross,"(480.0, -270.0)",0,3999.116800026968,1100.0177999958396,True,False
15,3,218.66708579997066,cross,"(480.0, -270.0)",0,4015.3442000155337,1116.2451999844052,True,False
15,3,218.68406999995932,cross,"(480.0, -270.0)",0,4032.3284000041895,1133.229399973061,True,False
15,3,218.7000163999619,cross,"(480.0, -270.0)",0,4048.274800006766,1149.1757999756373,True,False
15,3,218.71777709998423,cross,"(480.0, -270.0)",0,4066.035500029102,1166.9364999979734,True,False
15,3,218.73456589999842,cross,"(480.0, -270.0)",0,4082.824300043285,1183.7253000121564,True,False
15,3,218.75050109997392,cross,"(480.0, -270.0)",0,4098.759500018787,1199.660499987658,True,False
15,3,218.76732759998413,cross,"(480.0, -270.0)",0,4115.586000028998,1216.4869999978691,True,False
15,3,218.78385929996148,cross,"(480.0, -270.0)",0,4132.117700006347,1233.0186999752186,True,False
15,3,218.80068309995113,cross,"(480.0, -270.0)",0,4148.941499995999,1249.8424999648705,True,False
15,3,218.81619159999536,cross,"(480.0, -270.0)",0,4164.450000040233,1265.3510000091046,True,False
15,3,218.83299209998222,cross,"(480.0, -270.0)",0,4181.25050002709,1282.1514999959618,True,False
15,3,218.84939039999153,cross,"(480.0, -270.0)",0,4197.648800036404,1298.5498000052758,True,False
15,3,218.86604189994978,cross,"(480.0, -270.0)",0,4214.3002999946475,1315.201299963519,True,False
15,3,218.8823345999699,cross,"(480.0, -270.0)",0,4230.593000014778,1331.4939999836497,True,False
15,3,218.89911679999204,cross,"(480.0, -270.0)",0,4247.375200036913,1348.2762000057846,True,False
15,3,218.91617749998113,cross,"(480.0, -270.0)",0,4264.435900026001,1365.3368999948725,True,False
15,3,218.9333872999996,cross,"(480.0, -270.0)",0,4281.645700044464,1382.5467000133358,True,False
15,3,218.9502124999999,cross,"(480.0, -270.0)",0,4298.4709000447765,1399.371900013648,True,False
15,3,218.96665909996955,cross,"(480.0, -270.0)",0,4314.917500014417,1415.8184999832883,True,False
15,3,218.98401179997018,cross,"(480.0, -270.0)",0,4332.270200015046,1433.1711999839172,True,False
15,3,219.0007391999825,cross,"(480.0, -270.0)",0,4348.99760002736,1449.8985999962315,True,False
15,3,219.0172668999876,cross,"(480.0, -270.0)",0,4365.525300032459,1466.4263000013307,True,False
15,3,219.03433649998624,cross,"(480.0, -270.0)",0,4382.594900031108,1483.4958999999799,True,False
15,3,219.0490640999633,cross,"(480.0, -270.0)",0,4397.322500008158,1498.2234999770299,True,False
15,3,219.06671839999035,cross,"(480.0, -270.0)",0,4414.97680003522,1515.8778000040911,True,False
15,3,219.08271129999775,cross,"(480.0, -270.0)",0,4430.969700042624,1531.8707000114955,True,False
15,3,219.09942159999628,cross,"(480.0, -270.0)",0,4447.680000041146,1548.5810000100173,True,False
15,3,219.11588519997895,cross,"(480.0, -270.0)",0,4464.143600023817,1565.0445999926887,True,False
15,3,219.13248249999015,cross,"(480.0, -270.0)",0,4480.740900035016,1581.6419000038877,True,False
15,3,219.14885319996392,cross,"(480.0, -270.0)",0,4497.111600008793,1598.0125999776646,True,False
15,3,219.16648369998438,cross,"(480.0, -270.0)",0,4514.7421000292525,1615.643099998124,True,False
15,3,219.18318919994636,cross,"(480.0, -270.0)",0,4531.447599991225,1632.3485999600962,True,False
15,3,219.20063729997491,cross,"(480.0, -270.0)",0,4548.895700019784,1649.7966999886557,True,False
15,3,219.21705539996037,cross,"(480.0, -270.0)",0,4565.313800005242,1666.2147999741137,True,False
15,3,219.23414219997358,cross,"(480.0, -270.0)",0,4582.400600018445,1683.3015999873169,True,False
15,3,219.25084349996177,cross,"(480.0, -270.0)",0,4599.101900006644,1700.002899975516,True,False
15,3,219.26720109995222,cross,"(480.0, -270.0)",0,4615.459499997087,1716.3604999659583,True,False
15,3,219.28265399998054,cross,"(480.0, -270.0)",0,4630.912400025409,1731.8133999942802,True,False
15,3,219.2996280999505,cross,"(480.0, -270.0)",0,4647.886499995366,1748.7874999642372,True,False
15,3,219.31602759996895,cross,"(480.0, -270.0)",0,4664.286000013817,1765.1869999826886,True,False
15,3,219.33289749996038,cross,"(480.0, -270.0)",0,4681.155900005251,1782.0568999741226,True,False
15,3,219.96612499997718,t,"(480.0, 270.0)",266.367900010664,5314.383400022052,2415.2843999909237,False,True
15,4,221.74962829996366,star,"(-480.0, 270.0)",316.8637999915518,7097.88670000853,1783.503299986478,False,True
16,1,225.86626649997197,circle,"(-480.0, -270.0)",0,0.011599971912801266,0.011599971912801266,False,True
16,2,226.13162919995375,cross,"(480.0, -270.0)",263.6044999817386,265.37429995369166,265.36269998177886,True,False
16,2,226.15039739996428,cross,"(480.0, -270.0)",0,284.1424999642186,284.1308999923058,True,False
16,2,226.16481649997877,cross,"(480.0, -270.0)",0,298.56159997871146,298.55000000679865,True,False
16,2,226.18202259996906,cross,"(480.0, -270.0)",0,315.7676999690011,315.7560999970883,True,False
16,2,226.19800599996233,cross,"(480.0, -270.0)",0,331.7510999622755,331.7394999903627,True,False
16,2,226.2148002999602,cross,"(480.0, -270.0)",0,348.54539996013045,348.53379998821765,True,False
16,2,226.23251649999293,cross,"(480.0, -270.0)",0,366.26159999286756,366.25000002095476,True,False
16,2,226.24976989999413,cross,"(480.0, -270.0)",0,383.5149999940768,383.503400022164,True,False
16,2,226.26390709995758,cross,"(480.0, -270.0)",0,397.65219995751977,397.64059998560697,True,False
16,2,226.28091579995817,cross,"(480.0, -270.0)",0,414.6608999581076,414.6492999861948,True,False
16,2,226.2976498999633,cross,"(480.0, -270.0)",0,431.3949999632314,431.3833999913186,True,False
16,2,226.31445659999736,cross,"(480.0, -270.0)",0,448.2016999972984,448.1901000253856,True,False
16,2,226.33102389995474,cross,"(480.0, -270.0)",0,464.76899995468557,464.75739998277277,True,False
16,2,226.34784079995006,cross,"(480.0, -270.0)",0,481.5858999500051,481.5742999780923,True,False
16,2,226.3650881999638,cross,"(480.0, -270.0)",0,498.83329996373504,498.82169999182224,True,False
16,2,226.38172069995198,cross,"(480.0, -270.0)",0,515.4657999519259,515.4541999800131,True,False
16,2,226.39823459996842,cross,"(480.0, -270.0)",0,531.9796999683604,531.9680999964476,True,False
16,2,226.41540419997182,cross,"(480.0, -270.0)",0,549.1492999717593,549.1376999998465,True,False
16,2,226.4321691999794,cross,"(480.0, -270.0)",0,565.9142999793403,565.9027000074275,True,False
16,2,226.44845929997973,cross,"(480.0, -270.0)",0,582.2043999796733,582.1928000077605,True,False
16,2,226.46551339997677,cross,"(480.0, -270.0)",0,599.2584999767132,599.2469000048004,True,False
16,2,226.48218890000135,cross,"(480.0, -270.0)",0,615.934000001289,615.9224000293761,True,False
16,2,226.4970657999511,cross,"(480.0, -270.0)",0,630.8108999510296,630.7992999791168,True,False
16,2,226.51398499996867,cross,"(480.0, -270.0)",0,647.7300999686122,647.7184999966994,True,False
16,2,226.5308887999854,cross,"(480.0, -270.0)",0,664.6338999853469,664.6223000134341,True,False
16,2,226.54754089994822,cross,"(480.0, -270.0)",0,681.2859999481589,681.2743999762461,True,False
16,2,226.56395179999527,cross,"(480.0, -270.0)",0,697.6968999952078,697.685300023295,True,False
16,2,226.58057599997846,cross,"(480.0, -270.0)",0,714.321099978406,714.3095000064932,True,False
16,2,226.59728399995947,cross,"(480.0, -270.0)",0,731.0290999594145,731.0174999875017,True,False
16,2,226.61524329998065,cross,"(480.0, -270.0)",0,748.9883999805897,748.976800008677,True,False
16,2,226.61705789994448,circle,"(-480.0, -270.0)",250.03319996176288,750.8029999444261,750.7913999725133,True,False
16,2,226.634511799959,circle,"(-480.0, -270.0)",0,768.2568999589421,768.2452999870293,True,False
16,2,226.64850569999544,circle,"(-480.0, -270.0)",0,782.2507999953814,782.2392000234686,True,False
16,2,226.6652973999735,circle,"(-480.0, -270.0)",0,799.0424999734387,799.0309000015259,True,False
16,2,226.68161829997553,circle,"(-480.0, -270.0)",0,815.3633999754675,815.3518000035547,True,False
16,2,226.69819199998165,circle,"(-480.0, -270.0)",0,831.9370999815874,831.9255000096746,True,False
16,2,226.71502809994854,circle,"(-480.0, -270.0)",0,848.7731999484822,848.7615999765694,True,False
16,2,226.73046969994903,circle,"(-480.0, -270.0)",0,864.214799948968,864.2031999770552,True,False
16,2,226.7479430999956,circle,"(-480.0, -270.0)",0,881.6881999955513,881.6766000236385,True,False
16,2,226.76389299996663,circle,"(-480.0, -270.0)",0,897.6380999665707,897.6264999946579,True,False
16,2,226.7805676999851,circle,"(-480.0, -270.0)",0,914.3127999850549,914.3012000131421,True,False
16,2,226.7970552999759,circle,"(-480.0, -270.0)",0,930.8003999758512,930.7888000039384,True,False
16,2,226.81421399995452,circle,"(-480.0, -270.0)",0,947.9590999544598,947.947499982547,True,False
16,2,226.83071599999676,circle,"(-480.0, -270.0)",0,964.4610999966972,964.4495000247844,True,False
16,2,226.848440199974,circle,"(-480.0, -270.0)",0,982.1852999739349,982.1737000020221,True,False
16,2,226.86526469996898,circle,"(-480.0, -270.0)",0,999.0097999689169,998.9981999970041,True,False
16,2,226.88202939997427,circle,"(-480.0, -270.0)",0,1015.7744999742135,1015.7629000023007,True,False
16,2,226.8986573999864,circle,"(-480.0, -270.0)",0,1032.4024999863468,1032.390900014434,True,False
16,2,226.9153511999757,circle,"(-480.0, -270.0)",0,1049.0962999756448,1049.084700003732,True,False
16,2,226.93223039997974,circle,"(-480.0, -270.0)",0,1065.975499979686,1065.9639000077732,True,False
16,2,226.9480960999499,circle,"(-480.0, -270.0)",0,1081.8411999498494,1081.8295999779366,True,False
16,2,226.9655528999865,circle,"(-480.0, -270.0)",0,1099.2979999864474,1099.2864000145346,True,False
16,2,226.98118969995994,circle,"(-480.0, -270.0)",0,1114.934799959883,1114.9231999879703,True,False
16,2,226.99748689995613,circle,"(-480.0, -270.0)",0,1131.2319999560714,1131.2203999841586,True,False
16,2,227.01497229997767,circle,"(-480.0, -270.0)",0,1148.7173999776132,1148.7058000057004,True,False
16,2,227.03077659994597,circle,"(-480.0, -270.0)",0,1164.521699945908,1164.5100999739952,True,False
16,2,227.04789960000198,circle,"(-480.0, -270.0)",0,1181.6447000019252,1181.6331000300124,True,False
16,2,227.06496239994885,circle,"(-480.0, -270.0)",0,1198.7074999487959,1198.695899976883,True,False
16,2,227.08192549995147,circle,"(-480.0, -270.0)",0,1215.6705999514088,1215.658999979496,True,False
16,2,227.09874479996506,circle,"(-480.0, -270.0)",0,1232.4898999650031,1232.4782999930903,True,False
16,2,227.11528149998048,circle,"(-480.0, -270.0)",0,1249.026599980425,1249.0150000085123,True,False
16,2,227.13137779996032,circle,"(-480.0, -270.0)",0,1265.1228999602608,1265.111299988348,True,False
16,2,227.14810329995817,circle,"(-480.0, -270.0)",0,1281.8483999581076,1281.8367999861948,True,False
16,2,227.16351549996762,circle,"(-480.0, -270.0)",0,1297.260599967558,1297.2489999956451,True,False
16,2,227.18030419998104,circle,"(-480.0, -270.0)",0,1314.0492999809794,1314.0377000090666,True,False
16,2,227.19684629997937,circle,"(-480.0, -270.0)",0,1330.591399979312,1330.5798000073992,True,False
16,2,227.2131402999512,circle,"(-480.0, -270.0)",0,1346.8853999511339,1346.873799979221,True,False
16,2,227.2296692999662,circle,"(-480.0, -270.0)",0,1363.414399966132,1363.402799994219,True,False
16,2,227.24697169999126,circle,"(-480.0, -270.0)",0,1380.7167999912053,1380.7052000192925,True,False
16,2,227.26331319997553,circle,"(-480.0, -270.0)",0,1397.0582999754697,1397.046700003557,True,False
16,2,227.28085549996467,circle,"(-480.0, -270.0)",0,1414.600599964615,1414.5889999927022,True,False
16,2,227.2987439999706,circle,"(-480.0, -270.0)",0,1432.489099970553,1432.4774999986403,True,False
16,2,227.31515069998568,circle,"(-480.0, -270.0)",0,1448.8957999856211,1448.8842000137083,True,False
16,2,227.33161009999458,circle,"(-480.0, -270.0)",0,1465.3551999945194,1465.3436000226066,True,False
16,2,227.3478041999624,circle,"(-480.0, -270.0)",0,1481.549299962353,1481.5376999904402,True,False
16,2,227.36481329996604,circle,"(-480.0, -270.0)",0,1498.5583999659866,1498.5467999940738,True,False
16,2,227.38141749997158,circle,"(-480.0, -270.0)",0,1515.162599971518,1515.1509999996051,True,False
16,2,227.3982255999581,circle,"(-480.0, -270.0)",0,1531.9706999580376,1531.9590999861248,True,False
16,2,227.4132927999599,circle,"(-480.0, -270.0)",0,1547.0378999598324,1547.0262999879196,True,False
16,2,227.42951689998154,circle,"(-480.0, -270.0)",0,1563.2619999814779,1563.250400009565,True,False
16,2,227.4467856999836,circle,"(-480.0, -270.0)",0,1580.530799983535,1580.5192000116222,True,False
16,2,227.46323919994757,circle,"(-480.0, -270.0)",0,1596.9842999475077,1596.9726999755949,True,False
16,2,227.47998319996987,circle,"(-480.0, -270.0)",0,1613.7282999698073,1613.7166999978945,True,False
16,2,227.49756109999726,circle,"(-480.0, -270.0)",0,1631.3061999971978,1631.294600025285,True,False
16,2,227.5138296999503,circle,"(-480.0, -270.0)",0,1647.5747999502346,1647.5631999783218,True,False
16,2,227.53057319996879,circle,"(-480.0, -270.0)",0,1664.318299968727,1664.3066999968141,True,False
16,2,227.54830169997877,circle,"(-480.0, -270.0)",0,1682.046799978707,1682.0352000067942,True,False
16,2,227.56456959998468,circle,"(-480.0, -270.0)",0,1698.3146999846213,1698.3031000127085,True,False
16,2,227.58161979995202,circle,"(-480.0, -270.0)",0,1715.3648999519646,1715.3532999800518,True,False
16,2,227.59788309998112,circle,"(-480.0, -270.0)",0,1731.6281999810599,1731.616600009147,True,False
16,2,227.61499159998493,circle,"(-480.0, -270.0)",0,1748.7366999848746,1748.7251000129618,True,False
16,2,227.63172489998396,circle,"(-480.0, -270.0)",0,1765.4699999839067,1765.458400011994,True,False
16,2,227.64775529998587,circle,"(-480.0, -270.0)",0,1781.5003999858163,1781.4888000139035,True,False
16,2,227.8476365999668,cross,"(480.0, -270.0)",264.2037000041455,1981.3816999667324,1981.3700999948196,False,True
16,3,228.11457659996813,cross,"(480.0, -270.0)",264.30550002260134,2248.3216999680735,266.9400000013411,True,False
16,3,228.13197170000058,cross,"(480.0, -270.0)",0,2265.7168000005186,284.33510003378615,True,False
16,3,228.1463839999633,cross,"(480.0, -270.0)",0,2280.129099963233,298.74739999650046,True,False
16,3,228.16345359996194,cross,"(480.0, -270.0)",0,2297.198699961882,315.8169999951497,True,False
16,3,228.1796359999571,cross,"(480.0, -270.0)",0,2313.3810999570414,331.99939999030903,True,False
16,3,228.19763909996254,cross,"(480.0, -270.0)",0,2331.3841999624856,350.00249999575317,True,False
16,3,228.21412389999023,cross,"(480.0, -270.0)",0,2347.868999990169,366.48730002343655,True,False
16,3,228.2307518000016,cross,"(480.0, -270.0)",0,2364.496900001541,383.11520003480837,True,False
16,3,228.2476362999878,cross,"(480.0, -270.0)",0,2381.381399987731,399.9997000209987,True,False
16,3,228.26436899998225,cross,"(480.0, -270.0)",0,2398.1140999821946,416.7324000154622,True,False
16,3,228.28060879994882,cross,"(480.0, -270.0)",0,2414.3538999487646,432.9721999820322,True,False
16,3,228.29737689998,cross,"(480.0, -270.0)",0,2431.1219999799505,449.7403000132181,True,False
16,3,228.31401499995263,cross,"(480.0, -270.0)",0,2447.760099952575,466.3783999858424,True,False
16,3,228.32964519999223,cross,"(480.0, -270.0)",0,2463.39029999217,482.0086000254378,True,False
16,3,228.34622979996493,cross,"(480.0, -270.0)",0,2479.9748999648727,498.59319999814034,True,False
16,3,228.3632788999821,cross,"(480.0, -270.0)",0,2497.023999982048,515.6423000153154,True,False
16,3,228.38005069998326,cross,"(480.0, -270.0)",0,2513.7957999831997,532.4141000164673,True,False
16,3,228.3963906999561,cross,"(480.0, -270.0)",0,2530.1357999560423,548.7540999893099,True,False
16,3,228.41393819998484,cross,"(480.0, -270.0)",0,2547.683299984783,566.3016000180505,True,False
16,3,228.43109579995507,cross,"(480.0, -270.0)",0,2564.8408999550156,583.4591999882832,True,False
16,3,228.44740929995896,cross,"(480.0, -270.0)",0,2581.154399958905,599.7726999921724,True,False
16,3,228.4639001999749,cross,"(480.0, -270.0)",0,2597.645299974829,616.2636000080965,True,False
16,3,228.48012989998097,cross,"(480.0, -270.0)",0,2613.874999980908,632.4933000141755,True,False
16,3,228.49775149999186,cross,"(480.0, -270.0)",0,2631.496599991806,650.1149000250734,True,False
16,3,228.514131599979,cross,"(480.0, -270.0)",0,2647.8766999789514,666.495000012219,True,False
16,3,228.53110619995277,cross,"(480.0, -270.0)",0,2664.8512999527156,683.4695999859832,True,False
16,3,228.54644079995342,cross,"(480.0, -270.0)",0,2680.185899953358,698.8041999866255,True,False
16,3,228.56269009999232,cross,"(480.0, -270.0)",0,2696.4351999922656,715.0535000255331,True,False
16,3,228.57971259998158,cross,"(480.0, -270.0)",0,2713.457699981518,732.0760000147857,True,False
16,3,228.59657539997716,cross,"(480.0, -270.0)",0,2730.320499977097,748.9388000103645,True,False
16,3,228.61345939995954,cross,"(480.0, -270.0)",0,2747.20449995948,765.8227999927476,True,False
16,3,228.62964269996155,cross,"(480.0, -270.0)",0,2763.3877999614924,782.00609999476,True,False
16,3,228.6462669999455,cross,"(480.0, -270.0)",0,2780.012099945452,798.6303999787197,True,False
16,3,228.66387910000049,cross,"(480.0, -270.0)",0,2797.6242000004277,816.2425000336953,True,False
16,3,228.68103459995473,cross,"(480.0, -270.0)",0,2814.77969995467,833.3979999879375,True,False
16,3,228.69743489997927,cross,"(480.0, -270.0)",0,2831.179999979213,849.7983000124805,True,False
16,3,228.71386279998114,cross,"(480.0, -270.0)",0,2847.607899981085,866.2262000143528,True,False
16,3,228.7304627999547,cross,"(480.0, -270.0)",0,2864.2078999546356,882.8261999879032,True,False
16,3,228.74744059995282,cross,"(480.0, -270.0)",0,2881.1856999527663,899.8039999860339,True,False
16,3,228.76373229996534,cross,"(480.0, -270.0)",0,2897.4773999652825,916.0956999985501,True,False
16,3,228.7807490999694,cross,"(480.0, -270.0)",0,2914.49419996934,933.1125000026077,True,False
16,3,228.79630769998766,cross,"(480.0, -270.0)",0,2930.0527999876067,948.6711000208743,True,False
16,3,228.8138548999559,cross,"(480.0, -270.0)",0,2947.5999999558553,966.2182999891229,True,False
16,3,228.82934299996123,cross,"(480.0, -270.0)",0,2963.088099961169,981.7063999944367,True,False
16,3,228.84638569998788,cross,"(480.0, -270.0)",0,2980.130799987819,998.7491000210866,True,False
16,3,228.863258999947,cross,"(480.0, -270.0)",0,2997.0040999469347,1015.6223999802023,True,False
16,3,228.87982279999414,cross,"(480.0, -270.0)",0,3013.5678999940865,1032.186200027354,True,False
16,3,228.89631529996404,cross,"(480.0, -270.0)",0,3030.060399963986,1048.6786999972537,True,False
16,3,228.91305589996045,cross,"(480.0, -270.0)",0,3046.8009999603964,1065.419299993664,True,False
16,3,228.92929000000004,cross,"(480.0, -270.0)",0,3063.035099999979,1081.6534000332467,True,False
16,3,228.9474725999753,cross,"(480.0, -270.0)",0,3081.217699975241,1099.8360000085086,True,False
16,3,228.96375589998206,cross,"(480.0, -270.0)",0,3097.500999982003,1116.1193000152707,True,False
16,3,228.98037730000215,cross,"(480.0, -270.0)",0,3114.1224000020884,1132.740700035356,True,False
16,3,228.99733939999714,cross,"(480.0, -270.0)",0,3131.084499997087,1149.7028000303544,True,False
16,3,229.0138260999811,cross,"(480.0, -270.0)",0,3147.57119998103,1166.1895000142977,True,False
16,3,229.0306908999919,cross,"(480.0, -270.0)",0,3164.435999991838,1183.0543000251055,True,False
16,3,229.0472930999822,cross,"(480.0, -270.0)",0,3181.03819998214,1199.6565000154078,True,False
16,3,229.06430859997636,cross,"(480.0, -270.0)",0,3198.053699976299,1216.6720000095665,True,False
16,3,229.0799642999773,cross,"(480.0, -270.0)",0,3213.7093999772333,1232.3277000105008,True,False
16,3,229.0962919999729,cross,"(480.0, -270.0)",0,3230.037099972833,1248.6554000061005,True,False
16,3,229.1127686999971,cross,"(480.0, -270.0)",0,3246.5137999970466,1265.1321000303142,True,False
16,3,229.12987909995718,cross,"(480.0, -270.0)",0,3263.624199957121,1282.2424999903888,True,False
16,3,229.14627329999348,cross,"(480.0, -270.0)",0,3280.0183999934234,1298.636700026691,True,False
16,3,229.162991899997,cross,"(480.0, -270.0)",0,3296.736999996938,1315.3553000302054,True,False
16,3,229.18018389999634,cross,"(480.0, -270.0)",0,3313.9289999962784,1332.547300029546,True,False
16,3,229.19656919996487,cross,"(480.0, -270.0)",0,3330.3142999648117,1348.9325999980792,True,False
16,3,229.21322469995357,cross,"(480.0, -270.0)",0,3346.969799953513,1365.5880999867804,True,False
16,3,229.22988549998263,cross,"(480.0, -270.0)",0,3363.630599982571,1382.2489000158384,True,False
16,3,229.24658139998792,cross,"(480.0, -270.0)",0,3380.3264999878593,1398.9448000211269,True,False
16,3,229.26320449996274,cross,"(480.0, -270.0)",0,3396.9495999626815,1415.5678999959491,True,False
16,3,229.28035289997933,cross,"(480.0, -270.0)",0,3414.097999979276,1432.7163000125438,True,False
16,3,229.29663129994879,cross,"(480.0, -270.0)",0,3430.3763999487273,1448.994699981995,True,False
16,3,229.3132357999566,cross,"(480.0, -270.0)",0,3446.980899956543,1465.5991999898106,True,False
16,3,229.32970669999486,cross,"(480.0, -270.0)",0,3463.4517999948002,1482.0701000280678,True,False
16,3,229.34627239999827,cross,"(480.0, -270.0)",0,3480.017499998212,1498.6358000314794,True,False
16,3,229.36437879997538,cross,"(480.0, -270.0)",0,3498.123899975326,1516.7422000085935,True,False
16,3,229.3806606999715,cross,"(480.0, -270.0)",0,3514.4057999714278,1533.0241000046954,True,False
16,3,229.39709819998825,cross,"(480.0, -270.0)",0,3530.8432999881916,1549.4616000214592,True,False
16,3,229.41364659997635,cross,"(480.0, -270.0)",0,3547.391699976288,1566.0100000095554,True,False
16,3,229.43041099997936,cross,"(480.0, -270.0)",0,3564.1560999793,1582.7744000125676,True,False
16,3,229.44690999999875,cross,"(480.0, -270.0)",0,3580.655099998694,1599.2734000319615,True,False
16,3,229.46320229995763,cross,"(480.0, -270.0)",0,3596.947399957571,1615.5656999908388,True,False
16,3,229.48055059998296,cross,"(480.0, -270.0)",0,3614.295699982904,1632.9140000161715,True,False
16,3,229.49696299998323,cross,"(480.0, -270.0)",0,3630.708099983167,1649.3264000164345,True,False
16,3,229.51416489999974,cross,"(480.0, -270.0)",0,3647.9099999996834,1666.528300032951,True,False
16,3,229.52961179998238,cross,"(480.0, -270.0)",0,3663.3568999823183,1681.9752000155859,True,False
16,3,229.54598439997062,cross,"(480.0, -270.0)",0,3679.7294999705628,1698.3478000038303,True,False
16,3,229.56265259999782,cross,"(480.0, -270.0)",0,3696.3976999977604,1715.016000031028,True,False
16,3,229.57937939994736,cross,"(480.0, -270.0)",0,3713.1244999472983,1731.742799980566,True,False
16,3,229.59628949995385,cross,"(480.0, -270.0)",0,3730.0345999537967,1748.6528999870643,True,False
16,3,229.61267369997222,cross,"(480.0, -270.0)",0,3746.4187999721617,1765.0371000054292,True,False
16,3,229.63021479995223,cross,"(480.0, -270.0)",0,3763.9598999521695,1782.578199985437,True,False
16,3,229.64686539996183,cross,"(480.0, -270.0)",0,3780.6104999617673,1799.228799995035,True,False
16,3,231.42953439999837,circle,"(-480.0, -270.0)",266.5679000201635,5563.279499998316,3581.8978000315838,False,True
17,1,240.74517879995983,circle,"(-480.0, -270.0)",0,0.01610000617802143,0.01610000617802143,False,True
17,2,241.459787699976,circle,"(-480.0, -270.0)",250.08219998562708,714.6250000223517,714.6089000161737,True,False
17,2,241.47741379996296,circle,"(-480.0, -270.0)",0,732.2511000093073,732.2350000031292,True,False
17,2,241.4921328999917,circle,"(-480.0, -270.0)",0,746.9702000380494,746.9541000318713,True,False
17,2,241.50903739995556,circle,"(-480.0, -270.0)",0,763.8747000019066,763.8585999957286,True,False
17,2,241.52626549999695,circle,"(-480.0, -270.0)",0,781.1028000432998,781.0867000371218,True,False
17,2,241.5427803999628,circle,"(-480.0, -270.0)",0,797.6177000091411,797.6016000029631,True,False
17,2,241.55939779995242,circle,"(-480.0, -270.0)",0,814.2350999987684,814.2189999925904,True,False
17,2,241.57595849997597,circle,"(-480.0, -270.0)",0,830.7958000223152,830.7797000161372,True,False
17,2,241.59312739997404,circle,"(-480.0, -270.0)",0,847.964700020384,847.948600014206,True,False
17,2,241.60930559999542,circle,"(-480.0, -270.0)",0,864.1429000417702,864.1268000355922,True,False
17,2,241.62656099995365,circle,"(-480.0, -270.0)",0,881.3983000000007,881.3821999938227,True,False
17,2,241.64219269994646,circle,"(-480.0, -270.0)",0,897.0299999928102,897.0138999866322,True,False
17,2,241.65933159994893,circle,"(-480.0, -270.0)",0,914.1688999952748,914.1527999890968,True,False
17,2,241.67583509994438,circle,"(-480.0, -270.0)",0,930.6723999907263,930.6562999845482,True,False
17,2,241.69241540000075,circle,"(-480.0, -270.0)",0,947.2527000471018,947.2366000409238,True,False
17,2,241.70929529995192,circle,"(-480.0, -270.0)",0,964.1325999982655,964.1164999920875,True,False
17,2,241.72654039994814,circle,"(-480.0, -270.0)",0,981.3776999944821,981.3615999883041,True,False
17,2,241.74343879998196,circle,"(-480.0, -270.0)",0,998.2761000283062,998.2600000221282,True,False
17,2,241.7598258999642,circle,"(-480.0, -270.0)",0,1014.6632000105456,1014.6471000043675,True,False
17,2,241.7763385999715,circle,"(-480.0, -270.0)",0,1031.1759000178427,1031.1598000116646,True,False
17,2,241.7926812999649,circle,"(-480.0, -270.0)",0,1047.5186000112444,1047.5025000050664,True,False
17,2,241.8093649999937,circle,"(-480.0, -270.0)",0,1064.2023000400513,1064.1862000338733,True,False
17,2,241.82597069995245,circle,"(-480.0, -270.0)",0,1080.8079999987967,1080.7918999926187,True,False
17,2,241.84322669997346,circle,"(-480.0, -270.0)",0,1098.0640000198036,1098.0479000136256,True,False
17,2,241.85886939999182,circle,"(-480.0, -270.0)",0,1113.7067000381649,1113.6906000319868,True,False
17,2,241.87534349999623,circle,"(-480.0, -270.0)",0,1130.1808000425808,1130.1647000364028,True,False
17,2,241.89255939994473,circle,"(-480.0, -270.0)",0,1147.3966999910772,1147.3805999848992,True,False
17,2,241.90952399995876,circle,"(-480.0, -270.0)",0,1164.3613000051118,1164.3451999989338,True,False
17,2,241.92612419999205,circle,"(-480.0, -270.0)",0,1180.9615000383928,1180.9454000322148,True,False
17,2,241.94243289995939,circle,"(-480.0, -270.0)",0,1197.2702000057325,1197.2540999995545,True,False
17,2,241.9599656999926,circle,"(-480.0, -270.0)",0,1214.8030000389554,1214.7869000327773,True,False
17,2,241.97595479997108,circle,"(-480.0, -270.0)",0,1230.7921000174247,1230.7760000112467,True,False
17,2,241.99263049999718,circle,"(-480.0, -270.0)",0,1247.4678000435233,1247.4517000373453,True,False
17,2,242.0094398999936,circle,"(-480.0, -270.0)",0,1264.2772000399418,1264.2611000337638,True,False
17,2,242.02589679998346,circle,"(-480.0, -270.0)",0,1280.7341000298038,1280.7180000236258,True,False
17,2,242.0425901999697,circle,"(-480.0, -270.0)",0,1297.427500016056,1297.411400009878,True,False
17,2,242.05928879999556,circle,"(-480.0, -270.0)",0,1314.1261000419036,1314.1100000357255,True,False
17,2,242.07599089998985,circle,"(-480.0, -270.0)",0,1330.8282000361942,1330.8121000300162,True,False
17,2,242.09317619999638,circle,"(-480.0, -270.0)",0,1348.0135000427254,1347.9974000365473,True,False
17,2,242.10985819995403,circle,"(-480.0, -270.0)",0,1364.69550000038,1364.679399994202,True,False
17,2,242.1256131999544,circle,"(-480.0, -270.0)",0,1380.4505000007339,1380.4343999945559,True,False
17,2,242.14208089996828,circle,"(-480.0, -270.0)",0,1396.9182000146247,1396.9021000084467,True,False
17,2,242.1589264999493,circle,"(-480.0, -270.0)",0,1413.7637999956496,1413.7476999894716,True,False
17,2,242.17560019996017,circle,"(-480.0, -270.0)",0,1430.4375000065193,1430.4214000003412,True,False
17,2,242.1923347999691,circle,"(-480.0, -270.0)",0,1447.1721000154503,1447.1560000092722,True,False
17,2,242.20919849997154,circle,"(-480.0, -270.0)",0,1464.0358000178821,1464.0197000117041,True,False
17,2,242.22591209999518,circle,"(-480.0, -270.0)",0,1480.7494000415318,1480.7333000353537,True,False
17,2,242.2431910999585,circle,"(-480.0, -270.0)",0,1498.0284000048414,1498.0122999986634,True,False
17,2,242.25958109996282,circle,"(-480.0, -270.0)",0,1514.4184000091627,1514.4023000029847,True,False
17,2,242.27615759999026,circle,"(-480.0, -270.0)",0,1530.9949000366032,1530.9788000304252,True,False
17,2,242.29311969998525,circle,"(-480.0, -270.0)",0,1547.9570000316016,1547.9409000254236,True,False
17,2,242.3096896999632,circle,"(-480.0, -270.0)",0,1564.527000009548,1564.51090000337,True,False
17,2,242.32643619994633,circle,"(-480.0, -270.0)",0,1581.273499992676,1581.257399986498,True,False
17,2,242.3430066999863,circle,"(-480.0, -270.0)",0,1597.8440000326373,1597.8279000264592,True,False
17,2,242.35860239999602,circle,"(-480.0, -270.0)",0,1613.4397000423633,1613.4236000361852,True,False
17,2,242.37579719995847,circle,"(-480.0, -270.0)",0,1630.6345000048168,1630.6183999986388,True,False
17,2,242.3922225999995,circle,"(-480.0, -270.0)",0,1647.0599000458606,1647.0438000396825,True,False
17,2,242.40892149996944,circle,"(-480.0, -270.0)",0,1663.7588000157848,1663.7427000096068,True,False
17,2,242.42584270000225,circle,"(-480.0, -270.0)",0,1680.6800000485964,1680.6639000424184,True,False
17,2,242.44235169998137,circle,"(-480.0, -270.0)",0,1697.1890000277199,1697.1729000215419,True,False
17,2,242.46044449997135,circle,"(-480.0, -270.0)",0,1715.2818000176921,1715.2657000115141,True,False
17,2,242.47690079995664,circle,"(-480.0, -270.0)",0,1731.7381000029854,1731.7219999968074,True,False
17,2,242.4934409999987,circle,"(-480.0, -270.0)",0,1748.2783000450581,1748.26220003888,True,False
17,2,242.51002229994629,circle,"(-480.0, -270.0)",0,1764.8595999926329,1764.8434999864548,True,False
17,2,242.52690040000016,circle,"(-480.0, -270.0)",0,1781.7377000465058,1781.7216000403278,True,False
17,2,243.04254689998925,cross,"(480.0, -270.0)",266.5308000287041,2297.3842000355944,2297.3681000294164,False,True
17,3,243.30976559995906,cross,"(480.0, -270.0)",263.4495999664068,2564.6029000054114,267.21869996981695,True,False
17,3,243.32939649996115,cross,"(480.0, -270.0)",0,2584.233800007496,286.8495999719016,True,False
17,3,243.34193639998557,cross,"(480.0, -270.0)",0,2596.7737000319175,299.38949999632314,True,False
17,3,243.35877229995094,cross,"(480.0, -270.0)",0,2613.6095999972895,316.2253999616951,True,False
17,3,243.37633689999348,cross,"(480.0, -270.0)",0,2631.1742000398226,333.7900000042282,True,False
17,3,243.39244259998668,cross,"(480.0, -270.0)",0,2647.279900033027,349.89569999743253,True,False
17,3,243.4094589999877,cross,"(480.0, -270.0)",0,2664.2963000340387,366.9120999984443,True,False
17,3,243.42609439999796,cross,"(480.0, -270.0)",0,2680.9317000443116,383.5475000087172,True,False
17,3,243.4425149000017,cross,"(480.0, -270.0)",0,2697.3522000480443,399.9680000124499,True,False
17,3,243.45917459996417,cross,"(480.0, -270.0)",0,2714.0119000105187,416.6276999749243,True,False
17,3,243.47581819997868,cross,"(480.0, -270.0)",0,2730.655500025023,433.27129998942837,True,False
17,3,243.49094879999757,cross,"(480.0, -270.0)",0,2745.786100043915,448.4019000083208,True,False
17,3,243.50885319994995,cross,"(480.0, -270.0)",0,2763.690499996301,466.3062999607064,True,False
17,3,243.52425459999358,cross,"(480.0, -270.0)",0,2779.09190003993,481.7077000043355,True,False
17,3,243.54110809997655,cross,"(480.0, -270.0)",0,2795.9454000229016,498.5611999873072,True,False
17,3,243.5578325999668,cross,"(480.0, -270.0)",0,2812.669900013134,515.2856999775395,True,False
17,3,243.5744523999747,cross,"(480.0, -270.0)",0,2829.289700021036,531.9054999854416,True,False
17,3,243.59212369995657,cross,"(480.0, -270.0)",0,2846.9610000029206,549.5767999673262,True,False
17,3,243.60831589996815,cross,"(480.0, -270.0)",0,2863.1532000144944,565.7689999789,True,False
17,3,243.6258087999886,cross,"(480.0, -270.0)",0,2880.6461000349373,583.2618999993429,True,False
17,3,243.642676199961,cross,"(480.0, -270.0)",0,2897.513500007335,600.1292999717407,True,False
17,3,243.6593805999728,cross,"(480.0, -270.0)",0,2914.217900019139,616.8336999835446,True,False
17,3,243.67589439998847,cross,"(480.0, -270.0)",0,2930.731700034812,633.3474999992177,True,False
17,3,243.69241299998248,cross,"(480.0, -270.0)",0,2947.250300028827,649.8660999932326,True,False
17,3,243.70909209997626,cross,"(480.0, -270.0)",0,2963.9294000226073,666.5451999870129,True,False
17,3,243.72550989995943,cross,"(480.0, -270.0)",0,2980.347200005781,682.9629999701865,True,False
17,3,243.7427700999542,cross,"(480.0, -270.0)",0,2997.607400000561,700.2231999649666,True,False
17,3,243.7593249999918,cross,"(480.0, -270.0)",0,3014.1623000381514,716.778100002557,True,False
17,3,243.77599799999734,cross,"(480.0, -270.0)",0,3030.835300043691,733.4511000080965,True,False
17,3,243.79124969994882,cross,"(480.0, -270.0)",0,3046.0869999951683,748.7027999595739,True,False
17,3,243.8078043999849,cross,"(480.0, -270.0)",0,3062.641700031236,765.2574999956414,True,False
17,3,243.82469719997607,cross,"(480.0, -270.0)",0,3079.534500022419,782.1502999868244,True,False
17,3,243.84203020000132,cross,"(480.0, -270.0)",0,3096.867500047665,799.4833000120707,True,False
17,3,243.85896919999504,cross,"(480.0, -270.0)",0,3113.8065000413917,816.4223000057973,True,False
17,3,243.875004099973,cross,"(480.0, -270.0)",0,3129.841400019359,832.4571999837644,True,False
17,3,243.89250699995318,cross,"(480.0, -270.0)",0,3147.3442999995314,849.960099963937,True,False
17,3,243.90935729997,cross,"(480.0, -270.0)",0,3164.1946000163443,866.8103999807499,True,False
17,3,243.92582449998008,cross,"(480.0, -270.0)",0,3180.661800026428,883.2775999908336,True,False
17,3,243.94265159999486,cross,"(480.0, -270.0)",0,3197.4889000412077,900.1047000056133,True,False
17,3,243.95926549995784,cross,"(480.0, -270.0)",0,3214.1028000041842,916.7185999685898,True,False
17,3,243.97569169994676,cross,"(480.0, -270.0)",0,3230.528999993112,933.1447999575175,True,False
17,3,243.99234639998758,cross,"(480.0, -270.0)",0,3247.183700033929,949.7994999983348,True,False
17,3,244.007691399951,cross,"(480.0, -270.0)",0,3262.528699997347,965.1444999617524,True,False
17,3,244.0245504999766,cross,"(480.0, -270.0)",0,3279.3878000229597,982.0035999873653,True,False
17,3,244.04133779997937,cross,"(480.0, -270.0)",0,3296.175100025721,998.7908999901265,True,False
17,3,244.0581737999455,cross,"(480.0, -270.0)",0,3313.0110999918543,1015.6268999562599,True,False
17,3,244.07478339999216,cross,"(480.0, -270.0)",0,3329.620700038504,1032.2365000029095,True,False
17,3,244.0924855999765,cross,"(480.0, -270.0)",0,3347.3229000228457,1049.9386999872513,True,False
17,3,244.10821439995198,cross,"(480.0, -270.0)",0,3363.051699998323,1065.6674999627285,True,False
17,3,244.1246149999788,cross,"(480.0, -270.0)",0,3379.45230002515,1082.0680999895558,True,False
17,3,244.14239329996053,cross,"(480.0, -270.0)",0,3397.2306000068784,1099.846399971284,True,False
17,3,244.15900919999694,cross,"(480.0, -270.0)",0,3413.8465000432916,1116.4623000076972,True,False
17,3,244.1757630999782,cross,"(480.0, -270.0)",0,3430.6004000245593,1133.216199988965,True,False
17,3,244.19252609997056,cross,"(480.0, -270.0)",0,3447.3634000169113,1149.979199981317,True,False
17,3,244.2089770999737,cross,"(480.0, -270.0)",0,3463.8144000200555,1166.430199984461,True,False
17,3,244.22567309997976,cross,"(480.0, -270.0)",0,3480.5104000261053,1183.126199990511,True,False
17,3,244.24229519994697,cross,"(480.0, -270.0)",0,3497.132499993313,1199.7482999577187,True,False
17,3,244.25895849999506,cross,"(480.0, -270.0)",0,3513.7958000414073,1216.411600005813,True,False
17,3,244.27427299995907,cross,"(480.0, -270.0)",0,3529.1103000054136,1231.7260999698192,True,False
17,3,244.29091479995986,cross,"(480.0, -270.0)",0,3545.7521000062115,1248.3678999706171,True,False
17,3,244.30793769995216,cross,"(480.0, -270.0)",0,3562.77499999851,1265.3907999629155,True,False
17,3,244.32447239995236,cross,"(480.0, -270.0)",0,3579.309699998703,1281.9254999631085,True,False
17,3,244.34142019995488,cross,"(480.0, -270.0)",0,3596.2575000012293,1298.873299965635,True,False
17,3,244.35814099997515,cross,"(480.0, -270.0)",0,3612.9783000214957,1315.5940999859013,True,False
17,3,244.37609889998566,cross,"(480.0, -270.0)",0,3630.9362000320107,1333.5519999964163,True,False
17,3,244.392590799951,cross,"(480.0, -270.0)",0,3647.4280999973416,1350.0438999617472,True,False
17,3,244.40930379997008,cross,"(480.0, -270.0)",0,3664.1411000164226,1366.7568999808282,True,False
17,3,244.42601879994618,cross,"(480.0, -270.0)",0,3680.856099992525,1383.4718999569304,True,False
17,3,244.44272120000096,cross,"(480.0, -270.0)",0,3697.5585000473075,1400.174300011713,True,False
17,3,244.4594492999604,cross,"(480.0, -270.0)",0,3714.2866000067443,1416.9023999711499,True,False
17,3,244.4761073999689,cross,"(480.0, -270.0)",0,3730.944700015243,1433.5604999796487,True,False
17,3,244.49281579995295,cross,"(480.0, -270.0)",0,3747.6530999992974,1450.268899963703,True,False
17,3,244.50836139998864,cross,"(480.0, -270.0)",0,3763.198700034991,1465.8144999993965,True,False
17,3,244.52476780000143,cross,"(480.0, -270.0)",0,3779.6051000477746,1482.2209000121802,True,False
17,3,244.5411516999593,cross,"(480.0, -270.0)",0,3795.9890000056475,1498.6047999700531,True,False
17,3,244.55824619997293,cross,"(480.0, -270.0)",0,3813.0835000192747,1515.6992999836802,True,False
17,3,244.57531919999747,cross,"(480.0, -270.0)",0,3830.156500043813,1532.7723000082187,True,False
17,3,244.59175409999443,cross,"(480.0, -270.0)",0,3846.5914000407793,1549.2072000051849,True,False
17,3,244.60831979999784,cross,"(480.0, -270.0)",0,3863.157100044191,1565.7729000085965,True,False
17,3,244.62449409998953,cross,"(480.0, -270.0)",0,3879.3314000358805,1581.947200000286,True,False
17,3,244.64260359999025,cross,"(480.0, -270.0)",0,3897.4409000365995,1600.056700001005,True,False
17,3,244.6590811999631,cross,"(480.0, -270.0)",0,3913.9185000094585,1616.534299973864,True,False
17,3,244.6754438999924,cross,"(480.0, -270.0)",0,3930.281200038735,1632.8970000031404,True,False
17,3,244.69285009999294,cross,"(480.0, -270.0)",0,3947.6874000392854,1650.303200003691,True,False
17,3,244.70915759995114,cross,"(480.0, -270.0)",0,3963.9948999974877,1666.6106999618933,True,False
17,3,244.7257870999747,cross,"(480.0, -270.0)",0,3980.6244000210427,1683.2401999854483,True,False
17,3,244.742360299977,cross,"(480.0, -270.0)",0,3997.1976000233553,1699.813399987761,True,False
17,3,244.75893809995614,cross,"(480.0, -270.0)",0,4013.775400002487,1716.3911999668926,True,False
17,3,244.7740644000005,cross,"(480.0, -270.0)",0,4028.901700046845,1731.5175000112504,True,False
17,3,244.79240489995573,cross,"(480.0, -270.0)",0,4047.2422000020742,1749.8579999664798,True,False
17,3,244.8073629999999,cross,"(480.0, -270.0)",0,4062.200300046243,1764.8161000106484,True,False
17,3,244.82447890000185,cross,"(480.0, -270.0)",0,4079.316200048197,1781.9320000126027,True,False
17,3,246.00829279999016,star,"(-480.0, 270.0)",250.2233000122942,5263.130100036506,2965.745900000911,False,True
17,4,248.50752069998998,t,"(480.0, 270.0)",266.12240000395104,7762.358000036329,2499.2278999998234,False,True
18,1,252.62461969995638,circle,"(-480.0, -270.0)",0,0.011399970389902592,0.011399970389902592,False,True
18,2,253.0558170999866,star,"(-480.0, 270.0)",250.50279998686165,431.20880000060424,431.19740003021434,True,False
18,2,253.07530939998105,star,"(-480.0, 270.0)",0,450.70109999505803,450.6897000246681,True,False
18,2,253.08939929999178,star,"(-480.0, 270.0)",0,464.7910000057891,464.7796000353992,True,False
18,2,253.1061307999771,star,"(-480.0, 270.0)",0,481.5224999911152,481.5111000207253,True,False
18,2,253.12280459998874,star,"(-480.0, 270.0)",0,498.1963000027463,498.1849000323564,True,False
18,2,253.1393830999732,star,"(-480.0, 270.0)",0,514.7747999872081,514.7634000168182,True,False
18,2,253.15604029997485,star,"(-480.0, 270.0)",0,531.4319999888539,531.420600018464,True,False
18,2,253.172722599993,star,"(-480.0, 270.0)",0,548.1143000070006,548.1029000366107,True,False
18,2,253.18945269996766,star,"(-480.0, 270.0)",0,564.8443999816664,564.8330000112765,True,False
18,2,253.20611400000053,star,"(-480.0, 270.0)",0,581.5057000145316,581.4943000441417,True,False
18,2,253.22201859997585,star,"(-480.0, 270.0)",0,597.4102999898605,597.3989000194706,True,False
18,2,253.23879859998124,star,"(-480.0, 270.0)",0,614.1902999952435,614.1789000248536,True,False
18,2,253.25524369999766,star,"(-480.0, 270.0)",0,630.6354000116698,630.6240000412799,True,False
18,2,253.2718175999471,star,"(-480.0, 270.0)",0,647.209299961105,647.1978999907151,True,False
18,2,253.28842719999375,star,"(-480.0, 270.0)",0,663.8189000077546,663.8075000373647,True,False
18,2,253.306136899977,star,"(-480.0, 270.0)",0,681.5285999909975,681.5172000206076,True,False
18,2,253.3227255999809,star,"(-480.0, 270.0)",0,698.1172999949194,698.1059000245295,True,False
18,2,253.3394672999857,star,"(-480.0, 270.0)",0,714.8589999997057,714.8476000293158,True,False
18,2,253.35604189999867,star,"(-480.0, 270.0)",0,731.4336000126787,731.4222000422888,True,False
18,2,253.37288019998232,star,"(-480.0, 270.0)",0,748.2718999963254,748.2605000259355,True,False
18,2,253.38961899996502,star,"(-480.0, 270.0)",0,765.0106999790296,764.9993000086397,True,False
18,2,253.40604849997908,star,"(-480.0, 270.0)",0,781.4401999930851,781.4288000226952,True,False
18,2,253.42268809996312,star,"(-480.0, 270.0)",0,798.0797999771312,798.0684000067413,True,False
18,2,253.43928499997128,star,"(-480.0, 270.0)",0,814.6766999852844,814.6653000148945,True,False
18,2,253.45585139998002,star,"(-480.0, 270.0)",0,831.2430999940261,831.2317000236362,True,False
18,2,253.47270779998507,star,"(-480.0, 270.0)",0,848.0994999990799,848.08810002869,True,False
18,2,253.48929169995245,star,"(-480.0, 270.0)",0,864.6833999664523,864.6719999960624,True,False
18,2,253.50592209998285,star,"(-480.0, 270.0)",0,881.3137999968603,881.3024000264704,True,False
18,2,253.52120669995202,star,"(-480.0, 270.0)",0,896.5983999660239,896.586999995634,True,False
18,2,253.53882099996554,star,"(-480.0, 270.0)",0,914.2126999795437,914.2013000091538,True,False
18,2,253.55497249995824,star,"(-480.0, 270.0)",0,930.3641999722458,930.3528000018559,True,False
18,2,253.57189009996364,star,"(-480.0, 270.0)",0,947.2817999776453,947.2704000072554,True,False
18,2,253.58825509995222,star,"(-480.0, 270.0)",0,963.6467999662273,963.6353999958374,True,False
18,2,253.60589479998453,star,"(-480.0, 270.0)",0,981.2864999985322,981.2751000281423,True,False
18,2,253.6224830999854,star,"(-480.0, 270.0)",0,997.8747999994084,997.8634000290185,True,False
18,2,253.6394940999453,star,"(-480.0, 270.0)",0,1014.885799959302,1014.874399988912,True,False
18,2,253.65582349995384,star,"(-480.0, 270.0)",0,1031.2151999678463,1031.2037999974564,True,False
18,2,253.67323209997267,star,"(-480.0, 270.0)",0,1048.6237999866717,1048.6124000162818,True,False
18,2,253.689274299948,star,"(-480.0, 270.0)",0,1064.665999962017,1064.654599991627,True,False
18,2,253.70601759996498,star,"(-480.0, 270.0)",0,1081.4092999789864,1081.3979000085965,True,False
18,2,253.70802779996302,circle,"(-480.0, -270.0)",267.0928000006825,1083.4194999770261,1083.4081000066362,True,False
18,2,253.72427989996504,circle,"(-480.0, -270.0)",0,1099.6715999790467,1099.6602000086568,True,False
18,2,253.7379456999479,circle,"(-480.0, -270.0)",0,1113.3373999618925,1113.3259999915026,True,False
18,2,253.75472809997154,circle,"(-480.0, -270.0)",0,1130.1197999855503,1130.1084000151604,True,False
18,2,253.77163529995596,circle,"(-480.0, -270.0)",0,1147.0269999699667,1147.0155999995768,True,False
18,2,253.7883444999461,circle,"(-480.0, -270.0)",0,1163.7361999601126,1163.7247999897227,True,False
18,2,253.80483749997802,circle,"(-480.0, -270.0)",0,1180.2291999920271,1180.2178000216372,True,False
18,2,253.8216241999762,circle,"(-480.0, -270.0)",0,1197.0158999902196,1197.0045000198297,True,False
18,2,253.83839609997813,circle,"(-480.0, -270.0)",0,1213.787799992133,1213.776400021743,True,False
18,2,253.8561209999607,circle,"(-480.0, -270.0)",0,1231.5126999747008,1231.501300004311,True,False
18,2,253.87266839999938,circle,"(-480.0, -270.0)",0,1248.0601000133902,1248.0487000430003,True,False
18,2,253.8893556999974,circle,"(-480.0, -270.0)",0,1264.7474000114016,1264.7360000410117,True,False
18,2,253.905862399959,circle,"(-480.0, -270.0)",0,1281.2540999730118,1281.2427000026219,True,False
18,2,253.9226053999737,circle,"(-480.0, -270.0)",0,1297.9970999876969,1297.985700017307,True,False
18,2,253.93925239995588,circle,"(-480.0, -270.0)",0,1314.6440999698825,1314.6326999994926,True,False
18,2,253.954580599966,circle,"(-480.0, -270.0)",0,1329.9722999799997,1329.9609000096098,True,False
18,2,253.97176819999004,circle,"(-480.0, -270.0)",0,1347.1599000040442,1347.1485000336543,True,False
18,2,253.98835179995513,circle,"(-480.0, -270.0)",0,1363.7434999691322,1363.7320999987423,True,False
18,2,254.00524239998776,circle,"(-480.0, -270.0)",0,1380.634100001771,1380.622700031381,True,False
18,2,254.02213009999832,circle,"(-480.0, -270.0)",0,1397.5218000123277,1397.5104000419378,True,False
18,2,254.03920119995018,circle,"(-480.0, -270.0)",0,1414.592899964191,1414.5814999938011,True,False
18,2,254.05587589996867,circle,"(-480.0, -270.0)",0,1431.2675999826752,1431.2562000122853,True,False
18,2,254.07252449996304,circle,"(-480.0, -270.0)",0,1447.916199977044,1447.904800006654,True,False
18,2,254.08897759998217,circle,"(-480.0, -270.0)",0,1464.3692999961786,1464.3579000257887,True,False
18,2,254.10570139996707,circle,"(-480.0, -270.0)",0,1481.0930999810807,1481.0817000106908,True,False
18,2,254.12251229997491,circle,"(-480.0, -270.0)",0,1497.903999988921,1497.892600018531,True,False
18,2,254.13904669997282,circle,"(-480.0, -270.0)",0,1514.4383999868296,1514.4270000164397,True,False
18,2,254.15597019996494,circle,"(-480.0, -270.0)",0,1531.361899978947,1531.350500008557,True,False
18,2,254.17258899996523,circle,"(-480.0, -270.0)",0,1547.9806999792345,1547.9693000088446,True,False
18,2,254.18792669998948,circle,"(-480.0, -270.0)",0,1563.3184000034817,1563.3070000330918,True,False
18,2,254.20488169998862,circle,"(-480.0, -270.0)",0,1580.2734000026248,1580.262000032235,True,False
18,2,254.2214326999965,circle,"(-480.0, -270.0)",0,1596.8244000105187,1596.8130000401288,True,False
18,2,254.23808629997075,circle,"(-480.0, -270.0)",0,1613.4779999847524,1613.4666000143625,True,False
18,2,254.25468169996748,circle,"(-480.0, -270.0)",0,1630.0733999814838,1630.062000011094,True,False
18,2,254.27143609995255,circle,"(-480.0, -270.0)",0,1646.8277999665588,1646.816399996169,True,False
18,2,254.28911699994933,circle,"(-480.0, -270.0)",0,1664.508699963335,1664.497299992945,True,False
18,2,254.30562780000037,circle,"(-480.0, -270.0)",0,1681.0195000143722,1681.0081000439823,True,False
18,2,254.3224412999698,circle,"(-480.0, -270.0)",0,1697.8329999838024,1697.8216000134125,True,False
18,2,254.33901159995003,circle,"(-480.0, -270.0)",0,1714.403299964033,1714.3918999936432,True,False
18,2,254.35561289999168,circle,"(-480.0, -270.0)",0,1731.00460000569,1730.9932000353,True,False
18,2,254.3723257999518,circle,"(-480.0, -270.0)",0,1747.7174999658018,1747.706099995412,True,False
18,2,254.38894399994751,circle,"(-480.0, -270.0)",0,1764.3356999615207,1764.3242999911308,True,False
18,2,254.40582329995232,circle,"(-480.0, -270.0)",0,1781.2149999663234,1781.2035999959335,True,False
18,2,254.4388385999482,cross,"(480.0, -270.0)",264.40099999308586,1814.2302999622189,1814.218899991829,False,True
18,3,254.70572499994887,cross,"(480.0, -270.0)",263.48239998333156,2081.1166999628767,266.8864000006579,True,False
18,3,254.72384909994435,cross,"(480.0, -270.0)",0,2099.240799958352,285.01049999613315,True,False
18,3,254.73763319995487,cross,"(480.0, -270.0)",0,2113.0248999688774,298.7946000066586,True,False
18,3,254.75441329996102,cross,"(480.0, -270.0)",0,2129.804999975022,315.5747000128031,True,False
18,3,254.77113859995734,cross,"(480.0, -270.0)",0,2146.530299971346,332.30000000912696,True,False
18,3,254.78903649997665,cross,"(480.0, -270.0)",0,2164.4281999906525,350.19790002843365,True,False
18,3,254.80567259999225,cross,"(480.0, -270.0)",0,2181.0643000062555,366.83400004403666,True,False
18,3,254.82220369996503,cross,"(480.0, -270.0)",0,2197.5953999790363,383.36510001681745,True,False
18,3,254.83883329998935,cross,"(480.0, -270.0)",0,2214.2250000033528,399.9947000411339,True,False
18,3,254.85550589999184,cross,"(480.0, -270.0)",0,2230.8976000058465,416.6673000436276,True,False
18,3,254.87213129998418,cross,"(480.0, -270.0)",0,2247.522999998182,433.2927000359632,True,False
18,3,254.8888097999734,cross,"(480.0, -270.0)",0,2264.2014999873936,449.97120002517477,True,False
18,3,254.9054269999615,cross,"(480.0, -270.0)",0,2280.818699975498,466.58840001327917,True,False
18,3,254.92216379998717,cross,"(480.0, -270.0)",0,2297.555500001181,483.32520003896207,True,False
18,3,254.93737639999017,cross,"(480.0, -270.0)",0,2312.7681000041775,498.5378000419587,True,False
18,3,254.95451499999035,cross,"(480.0, -270.0)",0,2329.906700004358,515.676400042139,True,False
18,3,254.97113069996703,cross,"(480.0, -270.0)",0,2346.5223999810405,532.2921000188217,True,False
18,3,254.98760429996764,cross,"(480.0, -270.0)",0,2362.995999981649,548.7657000194304,True,False
18,3,255.00419429998146,cross,"(480.0, -270.0)",0,2379.58599999547,565.3557000332512,True,False
18,3,255.02124199998798,cross,"(480.0, -270.0)",0,2396.633700001985,582.403400039766,True,False
18,3,255.03911419998622,cross,"(480.0, -270.0)",0,2414.505900000222,600.2756000380032,True,False
18,3,255.0554739999934,cross,"(480.0, -270.0)",0,2430.8657000074163,616.6354000451975,True,False
18,3,255.07232219999423,cross,"(480.0, -270.0)",0,2447.713900008239,633.48360004602,True,False
18,3,255.0889257999952,cross,"(480.0, -270.0)",0,2464.3175000092015,650.0872000469826,True,False
18,3,255.1056050999905,cross,"(480.0, -270.0)",0,2480.9968000045046,666.7665000422858,True,False
18,3,255.12084889999824,cross,"(480.0, -270.0)",0,2496.240600012243,682.010300050024,True,False
18,3,255.13790299999528,cross,"(480.0, -270.0)",0,2513.2947000092827,699.0644000470638,True,False
18,3,255.15445419994649,cross,"(480.0, -270.0)",0,2529.845899960492,715.615599998273,True,False
18,3,255.17106149997562,cross,"(480.0, -270.0)",0,2546.453199989628,732.2229000274092,True,False
18,3,255.18801179999718,cross,"(480.0, -270.0)",0,2563.4035000111908,749.1732000489719,True,False
18,3,255.20505779999075,cross,"(480.0, -270.0)",0,2580.449500004761,766.2192000425421,True,False
18,3,255.2211214999552,cross,"(480.0, -270.0)",0,2596.513199969195,782.282900006976,True,False
18,3,255.2379324999638,cross,"(480.0, -270.0)",0,2613.3241999777965,799.0939000155777,True,False
18,3,255.25578129995847,cross,"(480.0, -270.0)",0,2631.1729999724776,816.9427000102587,True,False
18,3,255.27243189996807,cross,"(480.0, -270.0)",0,2647.8235999820754,833.5933000198565,True,False
18,3,255.2888946000021,cross,"(480.0, -270.0)",0,2664.2863000161014,850.0560000538826,True,False
18,3,255.3051650999696,cross,"(480.0, -270.0)",0,2680.5567999836057,866.3265000213869,True,False
18,3,255.32214079995174,cross,"(480.0, -270.0)",0,2697.532499965746,883.3022000035271,True,False
18,3,255.3387337999884,cross,"(480.0, -270.0)",0,2714.1255000024103,899.8952000401914,True,False
18,3,255.35547769995173,cross,"(480.0, -270.0)",0,2730.8693999657407,916.6391000035219,True,False
18,3,255.3722248999984,cross,"(480.0, -270.0)",0,2747.6166000124067,933.3863000501879,True,False
18,3,255.38733999995748,cross,"(480.0, -270.0)",0,2762.731699971482,948.5014000092633,True,False
18,3,255.40468509995844,cross,"(480.0, -270.0)",0,2780.0767999724485,965.8465000102296,True,False
18,3,255.42100899998331,cross,"(480.0, -270.0)",0,2796.4006999973208,982.1704000351019,True,False
18,3,255.43756679998478,cross,"(480.0, -270.0)",0,2812.9584999987856,998.7282000365667,True,False
18,3,255.45463689998724,cross,"(480.0, -270.0)",0,2830.028600001242,1015.7983000390232,True,False
18,3,255.47111980000045,cross,"(480.0, -270.0)",0,2846.511500014458,1032.281200052239,True,False
18,3,255.48779469996225,cross,"(480.0, -270.0)",0,2863.1863999762572,1048.9561000140384,True,False
18,3,255.5041998999659,cross,"(480.0, -270.0)",0,2879.5915999799035,1065.3613000176847,True,False
18,3,255.52210259996355,cross,"(480.0, -270.0)",0,2897.494299977552,1083.2640000153333,True,False
18,3,255.53886709996732,cross,"(480.0, -270.0)",0,2914.258799981326,1100.028500019107,True,False
18,3,255.55558379995637,cross,"(480.0, -270.0)",0,2930.9754999703728,1116.745200008154,True,False
18,3,255.57174899999518,cross,"(480.0, -270.0)",0,2947.140700009186,1132.910400046967,True,False
18,3,255.58851409994531,cross,"(480.0, -270.0)",0,2963.9057999593206,1149.6754999971017,True,False
18,3,255.60538509994512,cross,"(480.0, -270.0)",0,2980.7767999591306,1166.5464999969117,True,False
18,3,255.6218489999883,cross,"(480.0, -270.0)",0,2997.240700002294,1183.0104000400752,True,False
18,3,255.63867049996043,cross,"(480.0, -270.0)",0,3014.0621999744326,1199.8319000122137,True,False
18,3,255.6538740999531,cross,"(480.0, -270.0)",0,3029.2657999671064,1215.0355000048876,True,False
18,3,255.67080299998634,cross,"(480.0, -270.0)",0,3046.194700000342,1231.9644000381231,True,False
18,3,255.6876078999485,cross,"(480.0, -270.0)",0,3062.9995999624953,1248.7693000002764,True,False
18,3,255.70442219998222,cross,"(480.0, -270.0)",0,3079.813899996225,1265.583600034006,True,False
18,3,255.72662109998055,cross,"(480.0, -270.0)",0,3102.0127999945544,1287.7825000323355,True,False
18,3,255.73972019995563,cross,"(480.0, -270.0)",0,3115.1118999696337,1300.8816000074148,True,False
18,3,255.7551540999557,cross,"(480.0, -270.0)",0,3130.5457999696955,1316.3155000074767,True,False
18,3,255.7723624999635,cross,"(480.0, -270.0)",0,3147.7541999774985,1333.5239000152797,True,False
18,3,255.7888122999575,cross,"(480.0, -270.0)",0,3164.2039999715053,1349.9737000092864,True,False
18,3,255.8050201999722,cross,"(480.0, -270.0)",0,3180.411899986211,1366.1816000239924,True,False
18,3,255.82170689996565,cross,"(480.0, -270.0)",0,3197.098599979654,1382.868300017435,True,False
18,3,255.8385412999778,cross,"(480.0, -270.0)",0,3213.932999991812,1399.702700029593,True,False
18,3,255.85514369996963,cross,"(480.0, -270.0)",0,3230.535399983637,1416.3051000214182,True,False
18,3,255.87059009994846,cross,"(480.0, -270.0)",0,3245.9817999624647,1431.7515000002459,True,False
18,3,255.88756259996444,cross,"(480.0, -270.0)",0,3262.954299978446,1448.7240000162274,True,False
18,3,255.90418959996896,cross,"(480.0, -270.0)",0,3279.581299982965,1465.3510000207461,True,False
18,3,255.9208110999898,cross,"(480.0, -270.0)",0,3296.2028000038117,1481.9725000415929,True,False
18,3,255.93759950000094,cross,"(480.0, -270.0)",0,3312.991200014949,1498.76090005273,True,False
18,3,255.95432719995733,cross,"(480.0, -270.0)",0,3329.71889997134,1515.488600009121,True,False
18,3,255.97191739996197,cross,"(480.0, -270.0)",0,3347.3090999759734,1533.0788000137545,True,False
18,3,255.98897029994987,cross,"(480.0, -270.0)",0,3364.361999963876,1550.131700001657,True,False
18,3,256.0048036999651,cross,"(480.0, -270.0)",0,3380.1953999791294,1565.9651000169106,True,False
18,3,256.02207019994967,cross,"(480.0, -270.0)",0,3397.461899963673,1583.2316000014544,True,False
18,3,256.03846319997683,cross,"(480.0, -270.0)",0,3413.854899990838,1599.6246000286192,True,False
18,3,256.0558486999944,cross,"(480.0, -270.0)",0,3431.2404000083916,1617.0101000461727,True,False
18,3,256.0721160999965,cross,"(480.0, -270.0)",0,3447.5078000104986,1633.2775000482798,True,False
18,3,256.08707629999844,cross,"(480.0, -270.0)",0,3462.46800001245,1648.237700050231,True,False
18,3,256.10483969998313,cross,"(480.0, -270.0)",0,3480.2313999971375,1666.0011000349186,True,False
18,3,256.1208487999975,cross,"(480.0, -270.0)",0,3496.2405000114813,1682.0102000492625,True,False
18,3,256.137436399993,cross,"(480.0, -270.0)",0,3512.8281000070274,1698.5978000448085,True,False
18,3,256.15398889995413,cross,"(480.0, -270.0)",0,3529.3805999681354,1715.1503000059165,True,False
18,3,256.170696199988,cross,"(480.0, -270.0)",0,3546.0879000020213,1731.8576000398025,True,False
18,3,256.1883369999705,cross,"(480.0, -270.0)",0,3563.7286999844946,1749.4984000222757,True,False
18,3,256.2049212999991,cross,"(480.0, -270.0)",0,3580.3130000131205,1766.0827000509016,True,False
18,3,256.2215110999532,cross,"(480.0, -270.0)",0,3596.9027999672107,1782.672500004992,True,False
18,3,256.2384103999939,cross,"(480.0, -270.0)",0,3613.802100007888,1799.571800045669,True,False
18,3,257.27108399994904,t,"(480.0, 270.0)",266.7389999842271,4646.475699963048,2832.2454000008292,False,True
18,4,259.1373534000013,star,"(-480.0, 270.0)",250.06550003308803,6512.745100015309,1866.2694000522606,False,True
