trial_num,selection_num,timestamp,shape,position,fixation_duration_ms,rt_from_trial_start_ms,rt_from_previous_selection_ms,queued_selection,was_executed
13,1,174.91421339998487,circle,"(-480.0, -270.0)",0,0.01750001683831215,0.01750001683831215,False,True
13,2,175.59537830000045,circle,"(-480.0, -270.0)",267.5926000229083,681.1824000324123,681.164900015574,True,False
13,2,175.61383380001644,circle,"(-480.0, -270.0)",0,699.6379000484012,699.6204000315629,True,False
13,2,175.62954549997812,circle,"(-480.0, -270.0)",0,715.3496000100859,715.3320999932475,True,False
13,2,175.64213789999485,circle,"(-480.0, -270.0)",0,727.9420000268146,727.9245000099763,True,False
13,2,175.66166939999675,circle,"(-480.0, -270.0)",0,747.4735000287183,747.45600001188,True,False
13,2,175.6757223000168,circle,"(-480.0, -270.0)",0,761.5264000487514,761.5089000319131,True,False
13,2,175.69269320002059,circle,"(-480.0, -270.0)",0,778.4973000525497,778.4798000357114,True,False
13,2,175.70876820001286,circle,"(-480.0, -270.0)",0,794.5723000448197,794.5548000279814,True,False
13,2,175.72640320000937,circle,"(-480.0, -270.0)",0,812.2073000413366,812.1898000244983,True,False
13,2,175.74299960001372,circle,"(-480.0, -270.0)",0,828.8037000456825,828.7862000288442,True,False
13,2,175.75983049999923,circle,"(-480.0, -270.0)",0,845.6346000311896,845.6171000143513,True,False
13,2,175.77603339997586,circle,"(-480.0, -270.0)",0,861.8375000078231,861.8199999909848,True,False
13,2,175.79325579997385,circle,"(-480.0, -270.0)",0,879.0599000058137,879.0423999889754,True,False
13,2,175.80904620001093,circle,"(-480.0, -270.0)",0,894.85030004289,894.8328000260517,True,False
13,2,175.8262143000029,circle,"(-480.0, -270.0)",0,912.0184000348672,912.0009000180289,True,False
13,2,175.84245290001854,circle,"(-480.0, -270.0)",0,928.2570000505075,928.2395000336692,True,False
13,2,175.86019189999206,circle,"(-480.0, -270.0)",0,945.9960000240244,945.9785000071861,True,False
13,2,175.87520720000612,circle,"(-480.0, -270.0)",0,961.0113000380807,960.9938000212424,True,False
13,2,175.89493499998935,circle,"(-480.0, -270.0)",0,980.7391000213102,980.7216000044718,True,False
13,2,175.90854380000383,circle,"(-480.0, -270.0)",0,994.3479000357911,994.3304000189528,True,False
13,2,175.9278820999898,circle,"(-480.0, -270.0)",0,1013.6862000217661,1013.6687000049278,True,False
13,2,175.94180819997564,circle,"(-480.0, -270.0)",0,1027.612300007604,1027.5947999907658,True,False
13,2,175.95915920002153,circle,"(-480.0, -270.0)",0,1044.963300053496,1044.9458000366576,True,False
13,2,175.97539580002194,circle,"(-480.0, -270.0)",0,1061.1999000539072,1061.1824000370689,True,False
13,2,175.99344789999304,circle,"(-480.0, -270.0)",0,1079.2520000250079,1079.2345000081696,True,False
13,2,176.0084670999786,circle,"(-480.0, -270.0)",0,1094.271200010553,1094.2536999937147,True,False
13,2,176.02612809999846,circle,"(-480.0, -270.0)",0,1111.9322000304237,1111.9147000135854,True,False
13,2,176.04265899996972,circle,"(-480.0, -270.0)",0,1128.4631000016816,1128.4455999848433,True,False
13,2,176.06072189996485,circle,"(-480.0, -270.0)",0,1146.5259999968112,1146.5084999799728,True,False
13,2,176.07664129999466,circle,"(-480.0, -270.0)",0,1162.4454000266269,1162.4279000097886,True,False
13,2,176.09345689998008,circle,"(-480.0, -270.0)",0,1179.2610000120476,1179.2434999952093,True,False
13,2,176.11001569998916,circle,"(-480.0, -270.0)",0,1195.8198000211269,1195.8023000042886,True,False
13,2,176.12645049998537,circle,"(-480.0, -270.0)",0,1212.2546000173315,1212.2371000004932,True,False
13,2,176.14310859999387,circle,"(-480.0, -270.0)",0,1228.9127000258304,1228.895200008992,True,False
13,2,176.15997450001305,circle,"(-480.0, -270.0)",0,1245.7786000450142,1245.7611000281759,True,False
13,2,176.17515139997704,circle,"(-480.0, -270.0)",0,1260.955500009004,1260.9379999921657,True,False
13,2,176.19457739999052,circle,"(-480.0, -270.0)",0,1280.3815000224859,1280.3640000056475,True,False
13,2,176.20891819999088,circle,"(-480.0, -270.0)",0,1294.7223000228405,1294.7048000060022,True,False
13,2,176.2255250000162,circle,"(-480.0, -270.0)",0,1311.3291000481695,1311.3116000313312,True,False
13,2,176.24171699996805,circle,"(-480.0, -270.0)",0,1327.5211000000127,1327.5035999831744,True,False
13,2,176.25914430001285,circle,"(-480.0, -270.0)",0,1344.9484000448138,1344.9309000279754,True,False
13,2,176.27578610001365,circle,"(-480.0, -270.0)",0,1361.5902000456117,1361.5727000287734,True,False
13,2,176.29319210001267,circle,"(-480.0, -270.0)",0,1378.9962000446394,1378.978700027801,True,False
13,2,176.30907919997117,circle,"(-480.0, -270.0)",0,1394.88330000313,1394.8657999862917,True,False
13,2,176.32633840001654,circle,"(-480.0, -270.0)",0,1412.1425000485033,1412.125000031665,True,False
13,2,176.3428208999685,circle,"(-480.0, -270.0)",0,1428.6250000004657,1428.6074999836273,True,False
13,2,176.36004270002013,circle,"(-480.0, -270.0)",0,1445.8468000520952,1445.829300035257,True,False
13,2,176.37573309999425,circle,"(-480.0, -270.0)",0,1461.5372000262141,1461.5197000093758,True,False
13,2,176.39314459997695,circle,"(-480.0, -270.0)",0,1478.9487000089139,1478.9311999920756,True,False
13,2,176.40929440001491,circle,"(-480.0, -270.0)",0,1495.098500046879,1495.0810000300407,True,False
13,2,176.42784399999073,circle,"(-480.0, -270.0)",0,1513.6481000226922,1513.630600005854,True,False
13,2,176.44152290001512,circle,"(-480.0, -270.0)",0,1527.3270000470802,1527.309500030242,True,False
13,2,176.45904709998285,circle,"(-480.0, -270.0)",0,1544.8512000148185,1544.8336999979801,True,False
13,2,176.47511449997546,circle,"(-480.0, -270.0)",0,1560.918600007426,1560.9010999905877,True,False
13,2,176.49482299998635,circle,"(-480.0, -270.0)",0,1580.6271000183187,1580.6096000014804,True,False
13,2,176.50897819997044,circle,"(-480.0, -270.0)",0,1594.7823000024073,1594.764799985569,True,False
13,2,176.52761649998138,circle,"(-480.0, -270.0)",0,1613.4206000133418,1613.4030999965034,True,False
13,2,176.54278899997007,circle,"(-480.0, -270.0)",0,1628.5931000020355,1628.5755999851972,True,False
13,2,176.5597460999852,circle,"(-480.0, -270.0)",0,1645.5502000171691,1645.5327000003308,True,False
13,2,176.57616110000527,circle,"(-480.0, -270.0)",0,1661.9652000372298,1661.9477000203915,True,False
13,2,176.5931777000078,circle,"(-480.0, -270.0)",0,1678.9818000397645,1678.9643000229262,True,False
13,2,176.60903719998896,circle,"(-480.0, -270.0)",0,1694.8413000209257,1694.8238000040874,True,False
13,2,176.62634989997605,circle,"(-480.0, -270.0)",0,1712.154000008013,1712.1364999911748,True,False
13,2,176.64294950000476,circle,"(-480.0, -270.0)",0,1728.7536000367254,1728.736100019887,True,False
13,2,176.659757299989,circle,"(-480.0, -270.0)",0,1745.5614000209607,1745.5439000041224,True,False
13,2,176.67558779998217,circle,"(-480.0, -270.0)",0,1761.3919000141323,1761.374399997294,True,False
13,2,176.69457779999357,circle,"(-480.0, -270.0)",0,1780.3819000255316,1780.3644000086933,True,False
13,2,177.2940059999819,star,"(-480.0, 270.0)",268.2065999833867,2379.810100013856,2379.7925999970175,False,True
13,3,177.55811699997867,star,"(-480.0, 270.0)",261.258699989412,2643.9211000106297,264.1109999967739,True,False
13,3,177.57795639999676,star,"(-480.0, 270.0)",0,2663.7605000287294,283.9504000148736,True,False
13,3,177.59284529997967,star,"(-480.0, 270.0)",0,2678.6494000116363,298.8392999977805,True,False
13,3,177.60964729997795,star,"(-480.0, 270.0)",0,2695.4514000099152,315.6412999960594,True,False
13,3,177.62633070000447,star,"(-480.0, 270.0)",0,2712.134800036438,332.32470002258196,True,False
13,3,177.6428538999753,star,"(-480.0, 270.0)",0,2728.6580000072718,348.8478999934159,True,False
13,3,177.65983189997496,star,"(-480.0, 270.0)",0,2745.6360000069253,365.82589999306947,True,False
13,3,177.67634700000053,star,"(-480.0, 270.0)",0,2762.151100032497,382.34100001864135,True,False
13,3,177.69272920000367,star,"(-480.0, 270.0)",0,2778.533300035633,398.7232000217773,True,False
13,3,177.70897599996533,star,"(-480.0, 270.0)",0,2794.780099997297,414.9699999834411,True,False
13,3,177.72655720001785,star,"(-480.0, 270.0)",0,2812.3613000498153,432.5512000359595,True,False
13,3,177.74226209998596,star,"(-480.0, 270.0)",0,2828.066200017929,448.25610000407323,True,False
13,3,177.75953569996636,star,"(-480.0, 270.0)",0,2845.339799998328,465.52969998447224,True,False
13,3,177.7759895999916,star,"(-480.0, 270.0)",0,2861.7937000235543,481.9836000096984,True,False
13,3,177.79184620000888,star,"(-480.0, 270.0)",0,2877.650300040841,497.84020002698526,True,False
13,3,177.80794530001003,star,"(-480.0, 270.0)",0,2893.7494000419974,513.9393000281416,True,False
13,3,177.82552539999597,star,"(-480.0, 270.0)",0,2911.329500027932,531.5194000140764,True,False
13,3,177.84143540001241,star,"(-480.0, 270.0)",0,2927.2395000443794,547.4294000305235,True,False
13,3,177.86112999997567,star,"(-480.0, 270.0)",0,2946.9341000076383,567.1239999937825,True,False
13,3,177.8749593999819,star,"(-480.0, 270.0)",0,2960.7635000138544,580.9533999999985,True,False
13,3,177.89337880001403,star,"(-480.0, 270.0)",0,2979.1829000459984,599.3728000321425,True,False
13,3,177.9091655999655,star,"(-480.0, 270.0)",0,2994.969699997455,615.159599983599,True,False
13,3,177.9260670999647,star,"(-480.0, 270.0)",0,3011.8711999966763,632.0610999828205,True,False
13,3,177.9420982999727,star,"(-480.0, 270.0)",0,3027.9024000046775,648.0922999908216,True,False
13,3,177.9590113000013,star,"(-480.0, 270.0)",0,3044.815400033258,665.0053000194021,True,False
13,3,177.97555999999167,star,"(-480.0, 270.0)",0,3061.3641000236385,681.5540000097826,True,False
13,3,177.99248419998912,star,"(-480.0, 270.0)",0,3078.288300021086,698.47820000723,True,False
13,3,178.00860489998013,star,"(-480.0, 270.0)",0,3094.4090000120923,714.5988999982364,True,False
13,3,178.0259204999893,star,"(-480.0, 270.0)",0,3111.7246000212617,731.9145000074059,True,False
13,3,178.04366660001688,star,"(-480.0, 270.0)",0,3129.4707000488415,749.6606000349857,True,False
13,3,178.0588018000126,star,"(-480.0, 270.0)",0,3144.605900044553,764.7958000306971,True,False
13,3,178.07463950000238,star,"(-480.0, 270.0)",0,3160.443600034341,780.6335000204854,True,False
13,3,178.0920318000135,star,"(-480.0, 270.0)",0,3177.8359000454657,798.0258000316098,True,False
13,3,178.10794620000524,star,"(-480.0, 270.0)",0,3193.750300037209,813.9402000233531,True,False
13,3,178.1252776000183,star,"(-480.0, 270.0)",0,3211.081700050272,831.2716000364162,True,False
13,3,178.14135779999197,star,"(-480.0, 270.0)",0,3227.16190002393,847.3518000100739,True,False
13,3,178.15904639998917,star,"(-480.0, 270.0)",0,3244.85050002113,865.040400007274,True,False
13,3,178.1752793000196,star,"(-480.0, 270.0)",0,3261.083400051575,881.2733000377193,True,False
13,3,178.19252219999908,star,"(-480.0, 270.0)",0,3278.32630003104,898.516200017184,True,False
13,3,178.2083054999821,star,"(-480.0, 270.0)",0,3294.1096000140533,914.2995000001974,True,False
13,3,178.22570279997308,star,"(-480.0, 270.0)",0,3311.5069000050426,931.6967999911867,True,False
13,3,178.244030700007,star,"(-480.0, 270.0)",0,3329.8348000389524,950.0247000250965,True,False
13,3,178.25944080000045,star,"(-480.0, 270.0)",0,3345.2449000324123,965.4348000185564,True,False
13,3,178.27513379999436,star,"(-480.0, 270.0)",0,3360.937900026329,981.127800012473,True,False
13,3,178.29194889997598,star,"(-480.0, 270.0)",0,3377.7530000079423,997.9428999940865,True,False
13,3,178.31391319999238,star,"(-480.0, 270.0)",0,3399.7173000243492,1019.9072000104934,True,False
13,3,178.32613519998267,star,"(-480.0, 270.0)",0,3411.9393000146374,1032.1292000007816,True,False
13,3,178.34224769996945,star,"(-480.0, 270.0)",0,3428.0518000014126,1048.2416999875568,True,False
13,3,178.3598929999862,star,"(-480.0, 270.0)",0,3445.697100018151,1065.8870000042953,True,False
13,3,178.37560769997071,star,"(-480.0, 270.0)",0,3461.4118000026792,1081.6016999888234,True,False
13,3,178.3926096999785,star,"(-480.0, 270.0)",0,3478.4138000104576,1098.6036999966018,True,False
13,3,178.4093986999942,star,"(-480.0, 270.0)",0,3495.2028000261635,1115.3927000123076,True,False
13,3,178.42567729996517,star,"(-480.0, 270.0)",0,3511.4813999971375,1131.6712999832816,True,False
13,3,178.44207859999733,star,"(-480.0, 270.0)",0,3527.882700029295,1148.072600015439,True,False
13,3,178.45887059997767,star,"(-480.0, 270.0)",0,3544.6747000096366,1164.8645999957807,True,False
13,3,178.4755620000069,star,"(-480.0, 270.0)",0,3561.3661000388674,1181.5560000250116,True,False
13,3,178.49225100001786,star,"(-480.0, 270.0)",0,3578.0551000498235,1198.2450000359677,True,False
13,3,178.50867080001626,star,"(-480.0, 270.0)",0,3594.474900048226,1214.6648000343703,True,False
13,3,178.52596120000817,star,"(-480.0, 270.0)",0,3611.7653000401333,1231.9552000262775,True,False
13,3,178.54046410002047,star,"(-480.0, 270.0)",0,3626.2682000524364,1246.4581000385806,True,False
13,3,178.56008019996807,star,"(-480.0, 270.0)",0,3645.8843000000343,1266.0741999861784,True,False
13,3,178.57581569999456,star,"(-480.0, 270.0)",0,3661.6198000265285,1281.8097000126727,True,False
13,3,178.59265880001476,star,"(-480.0, 270.0)",0,3678.462900046725,1298.652800032869,True,False
13,3,178.6073207000154,star,"(-480.0, 270.0)",0,3693.1248000473715,1313.3147000335157,True,False
13,3,178.6255463999696,star,"(-480.0, 270.0)",0,3711.350500001572,1331.5403999877162,True,False
13,3,178.64095729996916,star,"(-480.0, 270.0)",0,3726.7614000011235,1346.9512999872677,True,False
13,3,178.6594243000145,star,"(-480.0, 270.0)",0,3745.2284000464715,1365.4183000326157,True,False
13,3,178.67553489998681,star,"(-480.0, 270.0)",0,3761.339000018779,1381.5289000049233,True,False
13,3,178.69213769998169,star,"(-480.0, 270.0)",0,3777.94180001365,1398.1316999997944,True,False
13,3,178.7093784000026,star,"(-480.0, 270.0)",0,3795.1825000345707,1415.3724000207148,True,False
13,3,178.72619269997813,star,"(-480.0, 270.0)",0,3811.9968000100926,1432.1866999962367,True,False
13,3,178.74219079996692,star,"(-480.0, 270.0)",0,3827.9948999988846,1448.1847999850288,True,False
13,3,178.7603308999678,star,"(-480.0, 270.0)",0,3846.1349999997765,1466.3248999859206,True,False
13,3,178.77382880001096,star,"(-480.0, 270.0)",0,3859.632900042925,1479.8228000290692,True,False
13,3,178.7933517000056,star,"(-480.0, 270.0)",0,3879.1558000375517,1499.3457000236958,True,False
13,3,178.80712949996814,star,"(-480.0, 270.0)",0,3892.933600000106,1513.12349998625,True,False
13,3,178.8263412999804,star,"(-480.0, 270.0)",0,3912.1454000123776,1532.3352999985218,True,False
13,3,178.84155329997884,star,"(-480.0, 270.0)",0,3927.3574000108056,1547.5472999969497,True,False
13,3,178.8598380999756,star,"(-480.0, 270.0)",0,3945.642200007569,1565.8320999937132,True,False
13,3,178.8742012999719,star,"(-480.0, 270.0)",0,3960.0054000038654,1580.1952999900095,True,False
13,3,178.89161069999682,star,"(-480.0, 270.0)",0,3977.4148000287823,1597.6047000149265,True,False
13,3,178.90835019998485,star,"(-480.0, 270.0)",0,3994.1543000168167,1614.3442000029609,True,False
13,3,178.92559180001263,star,"(-480.0, 270.0)",0,4011.3959000445902,1631.5858000307344,True,False
13,3,178.94189050002024,star,"(-480.0, 270.0)",0,4027.6946000522003,1647.8845000383444,True,False
13,3,178.9585429999861,star,"(-480.0, 270.0)",0,4044.347100018058,1664.5370000042021,True,False
13,3,178.9749562999932,star,"(-480.0, 270.0)",0,4060.760400025174,1680.9503000113182,True,False
13,3,178.99230869999155,star,"(-480.0, 270.0)",0,4078.1128000235185,1698.3027000096627,True,False
13,3,179.00788180000382,star,"(-480.0, 270.0)",0,4093.68590003578,1713.875800021924,True,False
13,3,179.02634179999586,star,"(-480.0, 270.0)",0,4112.145900027826,1732.3358000139706,True,False
13,3,179.0404414999648,star,"(-480.0, 270.0)",0,4126.245599996764,1746.4354999829084,True,False
13,3,179.0599712000112,star,"(-480.0, 270.0)",0,4145.775300043169,1765.9652000293136,True,False
13,3,179.07369499997003,star,"(-480.0, 270.0)",0,4159.4991000019945,1779.6889999881387,True,False
13,3,179.09155199996894,star,"(-480.0, 270.0)",0,4177.356100000907,1797.545999987051,True,False
13,3,180.42622789996676,circle,"(-480.0, -270.0)",267.9857999901287,5512.031999998726,3132.22189998487,False,True
13,4,183.12435399997048,star,"(-480.0, 270.0)",251.5315999626182,8210.158100002445,2698.1261000037193,False,True
14,1,187.26088630000595,circle,"(-480.0, -270.0)",0,0.017900019884109497,0.017900019884109497,False,True
14,2,187.5215174999903,cross,"(480.0, -270.0)",258.75119998818263,260.6491000042297,260.6311999843456,True,False
14,2,187.5412005999824,cross,"(480.0, -270.0)",0,280.3321999963373,280.3142999764532,True,False
14,2,187.55467569996836,cross,"(480.0, -270.0)",0,293.8072999822907,293.7893999624066,True,False
14,2,187.57138019998092,cross,"(480.0, -270.0)",0,310.5117999948561,310.493899974972,True,False
14,2,187.5884737999877,cross,"(480.0, -270.0)",0,327.6054000016302,327.5874999817461,True,False
14,2,187.60356829996454,cross,"(480.0, -270.0)",0,342.69989997847006,342.68199995858595,True,False
14,2,187.62182639999082,cross,"(480.0, -270.0)",0,360.9580000047572,360.9400999848731,True,False
14,2,187.6380213999655,cross,"(480.0, -270.0)",0,377.15299997944385,377.13509995955974,True,False
14,2,187.65490889997454,cross,"(480.0, -270.0)",0,394.0404999884777,394.02259996859357,True,False
14,2,187.67025730002206,cross,"(480.0, -270.0)",0,409.38890003599226,409.37100001610816,True,False
14,2,187.68815190001624,cross,"(480.0, -270.0)",0,427.2835000301711,427.265600010287,True,False
14,2,187.70399030001136,cross,"(480.0, -270.0)",0,443.1219000252895,443.1040000054054,True,False
14,2,187.7213087999844,cross,"(480.0, -270.0)",0,460.4403999983333,460.4224999784492,True,False
14,2,187.73698909999803,cross,"(480.0, -270.0)",0,476.12070001196116,476.10279999207705,True,False
14,2,187.754652899981,cross,"(480.0, -270.0)",0,493.7844999949448,493.76659997506067,True,False
14,2,187.77122240001336,cross,"(480.0, -270.0)",0,510.3540000272915,510.33610000740737,True,False
14,2,187.78826699999627,cross,"(480.0, -270.0)",0,527.3986000102013,527.3806999903172,True,False
14,2,187.80488870001864,cross,"(480.0, -270.0)",0,544.020300032571,544.0024000126868,True,False
14,2,187.8215743000037,cross,"(480.0, -270.0)",0,560.7059000176378,560.6879999977536,True,False
14,2,187.8378090999904,cross,"(480.0, -270.0)",0,576.940700004343,576.9227999844588,True,False
14,2,187.85744809999596,cross,"(480.0, -270.0)",0,596.5797000098974,596.5617999900132,True,False
14,2,187.87092929997016,cross,"(480.0, -270.0)",0,610.0608999840915,610.0429999642074,True,False
14,2,187.88786109996727,cross,"(480.0, -270.0)",0,626.9926999812014,626.9747999613173,True,False
14,2,187.90324429998873,cross,"(480.0, -270.0)",0,642.3759000026621,642.357999982778,True,False
14,2,187.92145969998091,cross,"(480.0, -270.0)",0,660.5912999948487,660.5733999749646,True,False
14,2,187.9237257000059,circle,"(-480.0, -270.0)",250.83040003664792,662.857300019823,662.8393999999389,True,False
14,2,187.94085110002197,circle,"(-480.0, -270.0)",0,679.9827000359073,679.9648000160232,True,False
14,2,187.95492669998202,circle,"(-480.0, -270.0)",0,694.0582999959588,694.0403999760747,True,False
14,2,187.9708580999868,circle,"(-480.0, -270.0)",0,709.9897000007331,709.971799980849,True,False
14,2,187.9895551999798,circle,"(-480.0, -270.0)",0,728.6867999937385,728.6688999738544,True,False
14,2,188.004171699984,circle,"(-480.0, -270.0)",0,743.3032999979332,743.2853999780491,True,False
14,2,188.026140699978,circle,"(-480.0, -270.0)",0,765.2722999919206,765.2543999720365,True,False
14,2,188.03968899999745,circle,"(-480.0, -270.0)",0,778.820600011386,778.8026999915019,True,False
14,2,188.0577437999891,circle,"(-480.0, -270.0)",0,796.8754000030458,796.8574999831617,True,False
14,2,188.07466179999756,circle,"(-480.0, -270.0)",0,813.793400011491,813.7754999916069,True,False
14,2,188.09059889998753,circle,"(-480.0, -270.0)",0,829.7305000014603,829.7125999815762,True,False
14,2,188.1048442000174,circle,"(-480.0, -270.0)",0,843.9758000313304,843.9579000114463,True,False
14,2,188.12369149998995,circle,"(-480.0, -270.0)",0,862.8231000038795,862.8051999839954,True,False
14,2,188.13677520002238,circle,"(-480.0, -270.0)",0,875.9068000363186,875.8889000164345,True,False
14,2,188.15657789999386,circle,"(-480.0, -270.0)",0,895.709500007797,895.6915999879129,True,False
14,2,188.17304819996934,circle,"(-480.0, -270.0)",0,912.1797999832779,912.1618999633938,True,False
14,2,188.18995279999217,circle,"(-480.0, -270.0)",0,929.0844000061043,929.0664999862202,True,False
14,2,188.2062685000128,circle,"(-480.0, -270.0)",0,945.4001000267453,945.3822000068612,True,False
14,2,188.22309280000627,circle,"(-480.0, -270.0)",0,962.2244000202045,962.2065000003204,True,False
14,2,188.23960949998582,circle,"(-480.0, -270.0)",0,978.7410999997519,978.7231999798678,True,False
14,2,188.2568956000032,circle,"(-480.0, -270.0)",0,996.0272000171244,996.0092999972403,True,False
14,2,188.2727375999675,circle,"(-480.0, -270.0)",0,1011.8691999814473,1011.8512999615632,True,False
14,2,188.2900220999727,circle,"(-480.0, -270.0)",0,1029.1536999866366,1029.1357999667525,True,False
14,2,188.30632119998336,circle,"(-480.0, -270.0)",0,1045.4527999972925,1045.4348999774083,True,False
14,2,188.32411129999673,circle,"(-480.0, -270.0)",0,1063.242900010664,1063.22499999078,True,False
14,2,188.33811219997006,circle,"(-480.0, -270.0)",0,1077.2437999839894,1077.2258999641053,True,False
14,2,188.3552161999978,circle,"(-480.0, -270.0)",0,1094.3478000117466,1094.3298999918625,True,False
14,2,188.37116739997873,circle,"(-480.0, -270.0)",0,1110.298999992665,1110.2810999727808,True,False
14,2,188.38999569998123,circle,"(-480.0, -270.0)",0,1129.1272999951616,1129.1093999752775,True,False
14,2,188.40626020001946,circle,"(-480.0, -270.0)",0,1145.3918000333942,1145.3739000135101,True,False
14,2,188.42435320001096,circle,"(-480.0, -270.0)",0,1163.4848000248894,1163.4669000050053,True,False
14,2,188.43973450001795,circle,"(-480.0, -270.0)",0,1178.8661000318825,1178.8482000119984,True,False
14,2,188.4569883000222,circle,"(-480.0, -270.0)",0,1196.1199000361376,1196.1020000162534,True,False
14,2,188.47054820001358,circle,"(-480.0, -270.0)",0,1209.6798000275157,1209.6619000076316,True,False
14,2,188.48996199999237,circle,"(-480.0, -270.0)",0,1229.0936000063084,1229.0756999864243,True,False
14,2,188.50624349998543,circle,"(-480.0, -270.0)",0,1245.3750999993645,1245.3571999794804,True,False
14,2,188.52336759999162,circle,"(-480.0, -270.0)",0,1262.49920000555,1262.4812999856658,True,False
14,2,188.53949310001917,circle,"(-480.0, -270.0)",0,1278.624700033106,1278.6068000132218,True,False
14,2,188.55664949998027,circle,"(-480.0, -270.0)",0,1295.7810999942012,1295.763199974317,True,False
14,2,188.57302359997993,circle,"(-480.0, -270.0)",0,1312.1551999938674,1312.1372999739833,True,False
14,2,188.59012150001945,circle,"(-480.0, -270.0)",0,1329.2531000333838,1329.2352000134997,True,False
14,2,188.60452689998783,circle,"(-480.0, -270.0)",0,1343.6585000017658,1343.6405999818817,True,False
14,2,188.62186149996705,circle,"(-480.0, -270.0)",0,1360.9930999809876,1360.9751999611035,True,False
14,2,188.63774699997157,circle,"(-480.0, -270.0)",0,1376.8785999855027,1376.8606999656186,True,False
14,2,188.65701730002183,circle,"(-480.0, -270.0)",0,1396.1489000357687,1396.1310000158846,True,False
14,2,188.67007260001265,circle,"(-480.0, -270.0)",0,1409.2042000265792,1409.186300006695,True,False
14,2,188.6901915000053,circle,"(-480.0, -270.0)",0,1429.3231000192463,1429.3051999993622,True,False
14,2,188.70549859997118,circle,"(-480.0, -270.0)",0,1444.630199985113,1444.6122999652289,True,False
14,2,188.72303389996523,circle,"(-480.0, -270.0)",0,1462.1654999791645,1462.1475999592803,True,False
14,2,188.73726309998892,circle,"(-480.0, -270.0)",0,1476.3947000028566,1476.3767999829724,True,False
14,2,188.75582590000704,circle,"(-480.0, -270.0)",0,1494.9575000209734,1494.9396000010893,True,False
14,2,188.75789750000695,star,"(-480.0, 270.0)",265.720900031738,1497.0291000208817,1497.0112000009976,True,False
14,2,188.77595330000622,star,"(-480.0, 270.0)",0,1515.084900020156,1515.067000000272,True,False
14,2,188.7898674000171,star,"(-480.0, 270.0)",0,1528.9990000310354,1528.9811000111513,True,False
14,2,188.80543609999586,star,"(-480.0, 270.0)",0,1544.567700009793,1544.549799989909,True,False
14,2,188.8237356999889,star,"(-480.0, 270.0)",0,1562.8673000028357,1562.8493999829516,True,False
14,2,188.83788100001402,star,"(-480.0, 270.0)",0,1577.012600027956,1576.994700008072,True,False
14,2,188.85690319997957,star,"(-480.0, 270.0)",0,1596.0347999935038,1596.0168999736197,True,False
14,2,188.87314579996746,star,"(-480.0, 270.0)",0,1612.2773999813944,1612.2594999615103,True,False
14,2,188.88994289998664,star,"(-480.0, 270.0)",0,1629.07450000057,1629.0565999806859,True,False
14,2,188.90527809999185,star,"(-480.0, 270.0)",0,1644.409700005781,1644.3917999858968,True,False
14,2,188.9232943999814,star,"(-480.0, 270.0)",0,1662.425999995321,1662.408099975437,True,False
14,2,188.93961760000093,star,"(-480.0, 270.0)",0,1678.7492000148632,1678.731299994979,True,False
14,2,188.9569597999798,star,"(-480.0, 270.0)",0,1696.0913999937475,1696.0734999738634,True,False
14,2,188.97289949998958,star,"(-480.0, 270.0)",0,1712.0311000035144,1712.0131999836303,True,False
14,2,188.98984519997612,star,"(-480.0, 270.0)",0,1728.9767999900505,1728.9588999701664,True,False
14,2,189.0039400999667,star,"(-480.0, 270.0)",0,1743.0716999806464,1743.0537999607623,True,False
14,2,189.02322699996876,star,"(-480.0, 270.0)",0,1762.35859998269,1762.340699962806,True,False
14,2,189.03910240001278,star,"(-480.0, 270.0)",0,1778.234000026714,1778.21610000683,True,False
14,2,189.55519059998915,cross,"(480.0, -270.0)",266.58120000502095,2294.32220000308,2294.304299983196,False,True
14,3,189.81121269997675,cross,"(480.0, -270.0)",252.59539997205138,2550.344299990684,256.0220999876037,True,False
14,3,189.82599079998909,cross,"(480.0, -270.0)",0,2565.1224000030197,270.80019999993965,True,False
14,3,189.8393818999757,cross,"(480.0, -270.0)",0,2578.51349998964,284.1912999865599,True,False
14,3,189.85728689999087,cross,"(480.0, -270.0)",0,2596.418500004802,302.09630000172183,True,False
14,3,189.871171900013,cross,"(480.0, -270.0)",0,2610.30350002693,315.98130002385005,True,False
14,3,189.8877746000071,cross,"(480.0, -270.0)",0,2626.9062000210397,332.5840000179596,True,False
14,3,189.9049565999885,cross,"(480.0, -270.0)",0,2644.088200002443,349.765999999363,True,False
14,3,189.92272370000137,cross,"(480.0, -270.0)",0,2661.8553000153042,367.53310001222417,True,False
14,3,189.93829319998622,cross,"(480.0, -270.0)",0,2677.4248000001535,383.1025999970734,True,False
14,3,189.95750949997455,cross,"(480.0, -270.0)",0,2696.641099988483,402.3188999854028,True,False
14,3,189.97211329999845,cross,"(480.0, -270.0)",0,2711.244900012389,416.92270000930876,True,False
14,3,189.98892580001848,cross,"(480.0, -270.0)",0,2728.0574000324123,433.7352000293322,True,False
14,3,190.00510760000907,cross,"(480.0, -270.0)",0,2744.239200023003,449.91700001992285,True,False
14,3,190.02224570000544,cross,"(480.0, -270.0)",0,2761.377300019376,467.0551000162959,True,False
14,3,190.03897110000253,cross,"(480.0, -270.0)",0,2778.1027000164613,483.78050001338124,True,False
14,3,190.05548909999197,cross,"(480.0, -270.0)",0,2794.6207000059076,500.2985000028275,True,False
14,3,190.07201469998108,cross,"(480.0, -270.0)",0,2811.1462999950163,516.8240999919362,True,False
14,3,190.08992220001528,cross,"(480.0, -270.0)",0,2829.0538000292145,534.7316000261344,True,False
14,3,190.10395069996594,cross,"(480.0, -270.0)",0,2843.0822999798693,548.7600999767892,True,False
14,3,190.12341509998078,cross,"(480.0, -270.0)",0,2862.5466999947093,568.2244999916293,True,False
14,3,190.13925539999036,cross,"(480.0, -270.0)",0,2878.3870000042953,584.0648000012152,True,False
14,3,190.15653219999513,cross,"(480.0, -270.0)",0,2895.6638000090607,601.3416000059806,True,False
14,3,190.17303449998144,cross,"(480.0, -270.0)",0,2912.1660999953747,617.8438999922946,True,False
14,3,190.19005550001748,cross,"(480.0, -270.0)",0,2929.187100031413,634.8649000283331,True,False
14,3,190.20581479999237,cross,"(480.0, -270.0)",0,2944.9464000063017,650.6242000032216,True,False
14,3,190.2223933999776,cross,"(480.0, -270.0)",0,2961.524999991525,667.2027999884449,True,False
14,3,190.23913409997476,cross,"(480.0, -270.0)",0,2978.2656999886967,683.9434999856167,True,False
14,3,190.25547319999896,cross,"(480.0, -270.0)",0,2994.604800012894,700.2826000098139,True,False
14,3,190.2720541000017,cross,"(480.0, -270.0)",0,3011.1857000156306,716.8635000125505,True,False
14,3,190.28947770001832,cross,"(480.0, -270.0)",0,3028.609300032258,734.287100029178,True,False
14,3,190.30633340001805,cross,"(480.0, -270.0)",0,3045.4650000319816,751.1428000289015,True,False
14,3,190.32219719997374,cross,"(480.0, -270.0)",0,3061.3287999876775,767.0065999845974,True,False
14,3,190.3388036999968,cross,"(480.0, -270.0)",0,3077.935300010722,783.6131000076421,True,False
14,3,190.35666109999875,cross,"(480.0, -270.0)",0,3095.79270001268,801.4705000096001,True,False
14,3,190.37032669998007,cross,"(480.0, -270.0)",0,3109.458299994003,815.136099990923,True,False
14,3,190.38983699999517,cross,"(480.0, -270.0)",0,3128.9686000091024,834.6464000060223,True,False
14,3,190.40360640001018,cross,"(480.0, -270.0)",0,3142.73800002411,848.41580002103,True,False
14,3,190.42265389999375,cross,"(480.0, -270.0)",0,3161.7855000076815,867.4633000046015,True,False
14,3,190.43831960001262,cross,"(480.0, -270.0)",0,3177.451200026553,883.129000023473,True,False
14,3,190.45512489997782,cross,"(480.0, -270.0)",0,3194.256499991752,899.9342999886721,True,False
14,3,190.47149159997934,cross,"(480.0, -270.0)",0,3210.623199993279,916.3009999901988,True,False
14,3,190.48875750001753,cross,"(480.0, -270.0)",0,3227.8891000314616,933.5669000283815,True,False
14,3,190.5051033999771,cross,"(480.0, -270.0)",0,3244.234999991022,949.912799987942,True,False
14,3,190.5217959000147,cross,"(480.0, -270.0)",0,3260.927500028629,966.6053000255488,True,False
14,3,190.5383616000181,cross,"(480.0, -270.0)",0,3277.4932000320405,983.1710000289604,True,False
14,3,190.55647419998422,cross,"(480.0, -270.0)",0,3295.6057999981567,1001.2835999950767,True,False
14,3,190.57209339999827,cross,"(480.0, -270.0)",0,3311.2250000122003,1016.9028000091203,True,False
14,3,190.58976890001213,cross,"(480.0, -270.0)",0,3328.900500026066,1034.5783000229858,True,False
14,3,190.60356570000295,cross,"(480.0, -270.0)",0,3342.69730001688,1048.3751000138,True,False
14,3,190.62318519997643,cross,"(480.0, -270.0)",0,3362.316799990367,1067.994599987287,True,False
14,3,190.63683169998694,cross,"(480.0, -270.0)",0,3375.963300000876,1081.6410999977961,True,False
14,3,190.65642860002117,cross,"(480.0, -270.0)",0,3395.5602000351064,1101.2380000320263,True,False
14,3,190.67180700000608,cross,"(480.0, -270.0)",0,3410.9386000200175,1116.6164000169374,True,False
14,3,190.68993890000274,cross,"(480.0, -270.0)",0,3429.070500016678,1134.748300013598,True,False
14,3,190.70613309997134,cross,"(480.0, -270.0)",0,3445.264699985273,1150.942499982193,True,False
14,3,190.7274628999876,cross,"(480.0, -270.0)",0,3466.59450000152,1172.2722999984398,True,False
14,3,190.7380185999791,cross,"(480.0, -270.0)",0,3477.150199993048,1182.8279999899678,True,False
14,3,190.75644580001244,cross,"(480.0, -270.0)",0,3495.5774000263773,1201.2552000232972,True,False
14,3,190.771950299968,cross,"(480.0, -270.0)",0,3511.0818999819458,1216.7596999788657,True,False
14,3,190.78927639999893,cross,"(480.0, -270.0)",0,3528.4080000128597,1234.0858000097796,True,False
14,3,190.80472459999146,cross,"(480.0, -270.0)",0,3543.8562000053935,1249.5340000023134,True,False
14,3,190.82186189998174,cross,"(480.0, -270.0)",0,3560.993499995675,1266.6712999925949,True,False
14,3,190.83866080001462,cross,"(480.0, -270.0)",0,3577.7924000285566,1283.4702000254765,True,False
14,3,190.85588290001033,cross,"(480.0, -270.0)",0,3595.014500024263,1300.6923000211827,True,False
14,3,190.86952539999038,cross,"(480.0, -270.0)",0,3608.657000004314,1314.3348000012338,True,False
14,3,190.8886002000072,cross,"(480.0, -270.0)",0,3627.731800021138,1333.409600018058,True,False
14,3,190.90349890000653,cross,"(480.0, -270.0)",0,3642.6305000204593,1348.3083000173792,True,False
14,3,190.92333640001016,cross,"(480.0, -270.0)",0,3662.4680000240915,1368.1458000210114,True,False
14,3,190.93877999996766,cross,"(480.0, -270.0)",0,3677.9115999815986,1383.5893999785185,True,False
14,3,190.9561777000199,cross,"(480.0, -270.0)",0,3695.3093000338413,1400.9871000307612,True,False
14,3,190.9700800999999,cross,"(480.0, -270.0)",0,3709.2117000138387,1414.8895000107586,True,False
14,3,190.98982580000302,cross,"(480.0, -270.0)",0,3728.9574000169523,1434.6352000138722,True,False
14,3,191.00550739996834,cross,"(480.0, -270.0)",0,3744.6389999822713,1450.3167999791913,True,False
14,3,191.02192359999754,cross,"(480.0, -270.0)",0,3761.0552000114694,1466.7330000083894,True,False
14,3,191.0382219000021,cross,"(480.0, -270.0)",0,3777.3535000160336,1483.0313000129536,True,False
14,3,191.0559016999905,cross,"(480.0, -270.0)",0,3795.033300004434,1500.7111000013538,True,False
14,3,191.07205050002085,cross,"(480.0, -270.0)",0,3811.1821000347845,1516.8599000317045,True,False
14,3,191.08888140000636,cross,"(480.0, -270.0)",0,3828.0130000202917,1533.6908000172116,True,False
14,3,191.10268760001054,cross,"(480.0, -270.0)",0,3841.8192000244744,1547.4970000213943,True,False
14,3,191.122596399975,cross,"(480.0, -270.0)",0,3861.7279999889433,1567.4057999858633,True,False
14,3,191.13960409996798,cross,"(480.0, -270.0)",0,3878.7356999819167,1584.4134999788366,True,False
14,3,191.15685470000608,cross,"(480.0, -270.0)",0,3895.986300020013,1601.664100016933,True,False
14,3,191.17452170001343,cross,"(480.0, -270.0)",0,3913.653300027363,1619.331100024283,True,False
14,3,191.18976659997134,cross,"(480.0, -270.0)",0,3928.8981999852695,1634.5759999821894,True,False
14,3,191.20474869996542,cross,"(480.0, -270.0)",0,3943.880299979355,1649.5580999762751,True,False
14,3,191.2230643000221,cross,"(480.0, -270.0)",0,3962.195900036022,1667.873700032942,True,False
14,3,191.23888299998362,cross,"(480.0, -270.0)",0,3978.0145999975502,1683.6923999944702,True,False
14,3,191.25657570001204,cross,"(480.0, -270.0)",0,3995.7073000259697,1701.3851000228897,True,False
14,3,191.26955849997466,cross,"(480.0, -270.0)",0,4008.6900999885984,1714.3678999855183,True,False
14,3,191.28730789996916,cross,"(480.0, -270.0)",0,4026.4394999830984,1732.1172999800183,True,False
14,3,191.30457039998146,cross,"(480.0, -270.0)",0,4043.701999995392,1749.3797999923117,True,False
14,3,191.32229789998382,cross,"(480.0, -270.0)",0,4061.4294999977574,1767.1072999946773,True,False
14,3,192.68937310000183,t,"(480.0, 270.0)",267.53589999862015,5428.504700015765,3134.1825000126846,False,True
14,4,194.96887759998208,star,"(-480.0, 270.0)",250.1992000034079,7708.009199996013,2279.5044999802485,False,True
15,1,199.07039050001185,circle,"(-480.0, -270.0)",0,0.01580000389367342,0.01580000389367342,False,True
15,2,200.55072669999208,star,"(-480.0, 270.0)",267.19410001533106,1480.3519999841228,1480.3361999802291,True,False
15,2,200.56897159997607,star,"(-480.0, 270.0)",0,1498.5968999681063,1498.5810999642126,True,False
15,2,200.58365659997799,star,"(-480.0, 270.0)",0,1513.2818999700248,1513.2660999661312,True,False
15,2,200.60002120002173,star,"(-480.0, 270.0)",0,1529.6465000137687,1529.630700009875,True,False
15,2,200.61746129998937,star,"(-480.0, 270.0)",0,1547.0865999814123,1547.0707999775186,True,False
15,2,200.6335778000066,star,"(-480.0, 270.0)",0,1563.2030999986455,1563.1872999947518,True,False
15,2,200.65098919998854,star,"(-480.0, 270.0)",0,1580.6144999805838,1580.59869997669,True,False
15,2,200.66573900001822,star,"(-480.0, 270.0)",0,1595.3643000102602,1595.3485000063665,True,False
15,2,200.68365570000606,star,"(-480.0, 270.0)",0,1613.2809999980964,1613.2651999942027,True,False
15,2,200.69974209996872,star,"(-480.0, 270.0)",0,1629.3673999607563,1629.3515999568626,True,False
15,2,200.71727620001184,star,"(-480.0, 270.0)",0,1646.901500003878,1646.8856999999844,True,False
15,2,200.73290709999856,star,"(-480.0, 270.0)",0,1662.5323999905959,1662.5165999867022,True,False
15,2,200.75032880000072,star,"(-480.0, 270.0)",0,1679.9540999927558,1679.9382999888621,True,False
15,2,200.7658933000057,star,"(-480.0, 270.0)",0,1695.5185999977402,1695.5027999938466,True,False
15,2,200.78371659998083,star,"(-480.0, 270.0)",0,1713.3418999728747,1713.326099968981,True,False
15,2,200.7995649999939,star,"(-480.0, 270.0)",0,1729.1902999859303,1729.1744999820367,True,False
15,2,200.81696650001686,star,"(-480.0, 270.0)",0,1746.5918000089005,1746.5760000050068,True,False
15,2,200.8332283999771,star,"(-480.0, 270.0)",0,1762.8536999691278,1762.837899965234,True,False
15,2,200.85070700000506,star,"(-480.0, 270.0)",0,1780.3322999970987,1780.316499993205,True,False
15,2,200.85300140001345,star,"(-480.0, 270.0)",282.4788000434637,1782.626700005494,1782.6109000016004,False,True
15,3,201.18363430001773,circle,"(-480.0, -270.0)",250.54140004795045,2113.259600009769,330.63290000427514,True,False
15,3,201.20318620000035,circle,"(-480.0, -270.0)",0,2132.8114999923855,350.18479998689145,True,False
15,3,201.21662279998418,circle,"(-480.0, -270.0)",0,2146.2480999762192,363.6213999707252,True,False
15,3,201.23274299997138,circle,"(-480.0, -270.0)",0,2162.3682999634184,379.74159995792434,True,False
15,3,201.2538933000178,circle,"(-480.0, -270.0)",0,2183.5186000098474,400.8919000043534,True,False
15,3,201.26727010001196,circle,"(-480.0, -270.0)",0,2196.8954000039957,414.2686999985017,True,False
15,3,201.28367590002017,circle,"(-480.0, -270.0)",0,2213.3012000122108,430.6745000067167,True,False
15,3,201.2992162000155,circle,"(-480.0, -270.0)",0,2228.8415000075474,446.2148000020534,True,False
15,3,201.31714250001824,circle,"(-480.0, -270.0)",0,2246.767800010275,464.14110000478104,True,False
15,3,201.33322769997176,circle,"(-480.0, -270.0)",0,2262.8529999637976,480.22629995830357,True,False
15,3,201.35061109997332,circle,"(-480.0, -270.0)",0,2280.2363999653608,497.6096999598667,True,False
15,3,201.3670301999664,circle,"(-480.0, -270.0)",0,2296.655499958433,514.0287999529392,True,False
15,3,201.3839055999997,circle,"(-480.0, -270.0)",0,2313.530899991747,530.9041999862529,True,False
15,3,201.39996150002116,circle,"(-480.0, -270.0)",0,2329.586800013203,546.9601000077091,True,False
15,3,201.41753159998916,circle,"(-480.0, -270.0)",0,2347.1568999812007,564.5301999757066,True,False
15,3,201.4323140999768,circle,"(-480.0, -270.0)",0,2361.9393999688327,579.3126999633387,True,False
15,3,201.45019289996708,circle,"(-480.0, -270.0)",0,2379.818199959118,597.1914999536239,True,False
15,3,201.4658563999692,circle,"(-480.0, -270.0)",0,2395.4816999612376,612.8549999557436,True,False
15,3,201.484208400012,circle,"(-480.0, -270.0)",0,2413.8337000040337,631.2069999985397,True,False
15,3,201.49973009998212,circle,"(-480.0, -270.0)",0,2429.355399974156,646.7286999686621,True,False
15,3,201.51709709997522,circle,"(-480.0, -270.0)",0,2446.722399967257,664.0956999617629,True,False
15,3,201.53249269997468,circle,"(-480.0, -270.0)",0,2462.117999966722,679.4912999612279,True,False
15,3,201.55052260000957,circle,"(-480.0, -270.0)",0,2480.1479000016116,697.5211999961175,True,False
15,3,201.56676309998147,circle,"(-480.0, -270.0)",0,2496.3883999735117,713.7616999680176,True,False
15,3,201.58515290002106,circle,"(-480.0, -270.0)",0,2514.7782000130974,732.1515000076033,True,False
15,3,201.60052510001697,circle,"(-480.0, -270.0)",0,2530.1504000090063,747.5237000035122,True,False
15,3,201.61786619998747,circle,"(-480.0, -270.0)",0,2547.4914999795146,764.8647999740206,True,False
15,3,201.63682109996444,circle,"(-480.0, -270.0)",0,2566.446399956476,783.8196999509819,True,False
15,3,201.656685199996,circle,"(-480.0, -270.0)",0,2586.3104999880306,803.6837999825366,True,False
15,3,201.67326860001776,circle,"(-480.0, -270.0)",0,2602.8939000098035,820.2672000043094,True,False
15,3,201.6882220999687,circle,"(-480.0, -270.0)",0,2617.8473999607377,835.2206999552436,True,False
15,3,201.70794960000785,circle,"(-480.0, -270.0)",0,2637.5748999998905,854.9481999943964,True,False
15,3,201.7242455999949,circle,"(-480.0, -270.0)",0,2653.8708999869414,871.2441999814473,True,False
15,3,201.750816499989,circle,"(-480.0, -270.0)",0,2680.441799981054,897.8150999755599,True,False
15,3,201.75425349996658,star,"(-480.0, 270.0)",252.87939998088405,2683.87879995862,901.2520999531262,True,False
15,3,201.76834569999482,star,"(-480.0, 270.0)",0,2697.9709999868646,915.3442999813706,True,False
15,3,201.7838502000086,star,"(-480.0, 270.0)",0,2713.4755000006407,930.8487999951467,True,False
15,3,201.80005949997576,star,"(-480.0, 270.0)",0,2729.6847999677993,947.0580999623053,True,False
15,3,201.81723460002104,star,"(-480.0, 270.0)",0,2746.859900013078,964.233200007584,True,False
15,3,201.83344610000495,star,"(-480.0, 270.0)",0,2763.0713999969885,980.4446999914944,True,False
15,3,201.8502967999666,star,"(-480.0, 270.0)",0,2779.9220999586396,997.2953999531455,True,False
15,3,201.86654289998114,star,"(-480.0, 270.0)",0,2796.168199973181,1013.5414999676868,True,False
15,3,201.88362450001296,star,"(-480.0, 270.0)",0,2813.2498000049964,1030.6230999995023,True,False
15,3,201.9000239999732,star,"(-480.0, 270.0)",0,2829.64929996524,1047.022599959746,True,False
15,3,201.91643869999098,star,"(-480.0, 270.0)",0,2846.0639999830164,1063.4372999775223,True,False
15,3,201.93213650002144,star,"(-480.0, 270.0)",0,2861.7618000134826,1079.1351000079885,True,False
15,3,201.95008719997713,star,"(-480.0, 270.0)",0,2879.712499969173,1097.0857999636792,True,False
15,3,201.96590150002157,star,"(-480.0, 270.0)",0,2895.526800013613,1112.900100008119,True,False
15,3,201.98334360000445,star,"(-480.0, 270.0)",0,2912.9688999964856,1130.3421999909915,True,False
15,3,201.99868209997658,star,"(-480.0, 270.0)",0,2928.3073999686167,1145.6806999631226,True,False
15,3,202.0167890000157,star,"(-480.0, 270.0)",0,2946.4143000077456,1163.7876000022516,True,False
15,3,202.03293499996653,star,"(-480.0, 270.0)",0,2962.560299958568,1179.933599953074,True,False
15,3,202.05087649996858,star,"(-480.0, 270.0)",0,2980.5017999606207,1197.8750999551266,True,False
15,3,202.06641600001603,star,"(-480.0, 270.0)",0,2996.0413000080734,1213.4146000025794,True,False
15,3,202.0832946000155,star,"(-480.0, 270.0)",0,3012.919900007546,1230.293200002052,True,False
15,3,202.09958079998614,star,"(-480.0, 270.0)",0,3029.2060999781825,1246.5793999726884,True,False
15,3,202.11700389999896,star,"(-480.0, 270.0)",0,3046.6291999910027,1264.0024999855086,True,False
15,3,202.13149280002108,star,"(-480.0, 270.0)",0,3061.1181000131182,1278.4914000076242,True,False
15,3,202.14964429999236,star,"(-480.0, 270.0)",0,3079.2695999844,1296.642899978906,True,False
15,3,202.16560389997903,star,"(-480.0, 270.0)",0,3095.2291999710724,1312.6024999655783,True,False
15,3,202.18297989998246,star,"(-480.0, 270.0)",0,3112.605199974496,1329.9784999690019,True,False
15,3,202.19903199997498,star,"(-480.0, 270.0)",0,3128.657299967017,1346.030599961523,True,False
15,3,202.2164219999686,star,"(-480.0, 270.0)",0,3146.047299960628,1363.420599955134,True,False
15,3,202.23172089998843,star,"(-480.0, 270.0)",0,3161.3461999804713,1378.7194999749772,True,False
15,3,202.25012889999198,star,"(-480.0, 270.0)",0,3179.7541999840178,1397.1274999785237,True,False
15,3,202.26594000001205,star,"(-480.0, 270.0)",0,3195.565300004091,1412.938599998597,True,False
15,3,202.2831676999922,star,"(-480.0, 270.0)",0,3212.792999984231,1430.1662999787368,True,False
15,3,202.29902340000262,star,"(-480.0, 270.0)",0,3228.6486999946646,1446.0219999891706,True,False
15,3,202.31673710001633,star,"(-480.0, 270.0)",0,3246.3624000083655,1463.7357000028715,True,False
15,3,202.3316534999758,star,"(-480.0, 270.0)",0,3261.2787999678403,1478.6520999623463,True,False
15,3,202.3498518000124,star,"(-480.0, 270.0)",0,3279.477100004442,1496.850399998948,True,False
15,3,202.36529190000147,star,"(-480.0, 270.0)",0,3294.917199993506,1512.290499988012,True,False
15,3,202.3827795999823,star,"(-480.0, 270.0)",0,3312.4048999743536,1529.7781999688596,True,False
15,3,202.3986855999683,star,"(-480.0, 270.0)",0,3328.310899960343,1545.6841999548487,True,False
15,3,202.41616889997385,star,"(-480.0, 270.0)",0,3345.794199965894,1563.1674999604002,True,False
15,3,202.43266920000315,star,"(-480.0, 270.0)",0,3362.294499995187,1579.6677999896929,True,False
15,3,202.4495741999708,star,"(-480.0, 270.0)",0,3379.1994999628514,1596.5727999573573,True,False
15,3,202.4662145000184,star,"(-480.0, 270.0)",0,3395.8398000104353,1613.2131000049412,True,False
15,3,202.4835802000016,star,"(-480.0, 270.0)",0,3413.205499993637,1630.5787999881431,True,False
15,3,202.49932950001676,star,"(-480.0, 270.0)",0,3428.954800008796,1646.328100003302,True,False
15,3,202.5170860000071,star,"(-480.0, 270.0)",0,3446.7112999991514,1664.0845999936573,True,False
15,3,202.53175600001123,star,"(-480.0, 270.0)",0,3461.381300003268,1678.7545999977738,True,False
15,3,202.54973019997124,star,"(-480.0, 270.0)",0,3479.355499963276,1696.728799957782,True,False
15,3,202.56523050001124,star,"(-480.0, 270.0)",0,3494.855800003279,1712.229099997785,True,False
15,3,202.5837848999654,star,"(-480.0, 270.0)",0,3513.410199957434,1730.78349995194,True,False
15,3,202.5994161000126,star,"(-480.0, 270.0)",0,3529.041400004644,1746.41469999915,True,False
15,3,202.622073800012,star,"(-480.0, 270.0)",0,3551.6991000040434,1769.0723999985494,True,False
15,3,202.63548689999152,star,"(-480.0, 270.0)",0,3565.1121999835595,1782.4854999780655,True,False
15,3,202.65047970000887,star,"(-480.0, 270.0)",0,3580.1050000009127,1797.4782999954186,True,False
15,3,204.26574559998699,circle,"(-480.0, -270.0)",265.64320002216846,5195.370899979025,3412.744199973531,False,True
15,4,210.36341689998517,t,"(480.0, 270.0)",266.6709999903105,11293.042199977208,6097.671299998183,False,True
