trial_num,selection_num,timestamp,shape,position,fixation_duration_ms,rt_from_trial_start_ms,rt_from_previous_selection_ms,queued_selection,was_executed
13,1,180.08892519999063,circle,"(-480.0, -270.0)",0,0.018699996871873736,0.018699996871873736,False,True
13,2,180.3515606999863,star,"(-480.0, 270.0)",260.5676999955904,262.65419999253936,262.6354999956675,True,False
13,2,180.37442469998496,star,"(-480.0, 270.0)",0,285.518199991202,285.4994999943301,True,False
13,2,180.3858998999931,star,"(-480.0, 270.0)",0,296.99339999933727,296.9747000024654,True,False
13,2,180.40204320001067,star,"(-480.0, 270.0)",0,313.1367000169121,313.1180000200402,True,False
13,2,180.41811769999913,star,"(-480.0, 270.0)",0,329.21120000537485,329.192500008503,True,False
13,2,180.43494569999166,star,"(-480.0, 270.0)",0,346.0391999979038,346.0205000010319,True,False
13,2,180.4517305000045,star,"(-480.0, 270.0)",0,362.82400001073256,362.8053000138607,True,False
13,2,180.46821540000383,star,"(-480.0, 270.0)",0,379.30890001007356,379.2902000132017,True,False
13,2,180.48445719998563,star,"(-480.0, 270.0)",0,395.55069999187253,395.53199999500066,True,False
13,2,180.50226509998902,star,"(-480.0, 270.0)",0,413.3585999952629,413.33989999839105,True,False
13,2,180.51884060000884,star,"(-480.0, 270.0)",0,429.9341000150889,429.91540001821704,True,False
13,2,180.536124700011,star,"(-480.0, 270.0)",0,447.21820001723245,447.1995000203606,True,False
13,2,180.55204730000696,star,"(-480.0, 270.0)",0,463.1408000132069,463.122100016335,True,False
13,2,180.56887799999095,star,"(-480.0, 270.0)",0,479.97149999719113,479.95280000031926,True,False
13,2,180.58541989998776,star,"(-480.0, 270.0)",0,496.5133999940008,496.4946999971289,True,False
13,2,180.60226270000567,star,"(-480.0, 270.0)",0,513.3562000119127,513.3375000150409,True,False
13,2,180.6178959000099,star,"(-480.0, 270.0)",0,528.9894000161439,528.970700019272,True,False
13,2,180.6365560000122,star,"(-480.0, 270.0)",0,547.6495000184514,547.6308000215795,True,False
13,2,180.651558499987,star,"(-480.0, 270.0)",0,562.6519999932498,562.6332999963779,True,False
13,2,180.67060760001186,star,"(-480.0, 270.0)",0,581.7011000181083,581.6824000212364,True,False
13,2,180.6848936000024,star,"(-480.0, 270.0)",0,595.9871000086423,595.9684000117704,True,False
13,2,180.7015659000026,star,"(-480.0, 270.0)",0,612.6594000088517,612.6407000119798,True,False
13,2,180.71902980000596,star,"(-480.0, 270.0)",0,630.1233000122011,630.1046000153292,True,False
13,2,180.73526340001263,star,"(-480.0, 270.0)",0,646.3569000188727,646.3382000220008,True,False
13,2,180.75164309999673,star,"(-480.0, 270.0)",0,662.7366000029724,662.7179000061005,True,False
13,2,180.76910000000498,star,"(-480.0, 270.0)",0,680.193500011228,680.1748000143562,True,False
13,2,180.7849317000073,star,"(-480.0, 270.0)",0,696.025200013537,696.0065000166651,True,False
13,2,180.80188789998647,star,"(-480.0, 270.0)",0,712.9813999927137,712.9626999958418,True,False
13,2,180.81905210000696,star,"(-480.0, 270.0)",0,730.145600013202,730.1269000163302,True,False
13,2,180.83611689999816,star,"(-480.0, 270.0)",0,747.2104000044055,747.1917000075337,True,False
13,2,180.8515325000044,star,"(-480.0, 270.0)",0,762.6260000106413,762.6073000137694,True,False
13,2,180.86874060000991,star,"(-480.0, 270.0)",0,779.8341000161599,779.8154000192881,True,False
13,2,180.88444100000197,star,"(-480.0, 270.0)",0,795.5345000082161,795.5158000113443,True,False
13,2,180.9014227000007,star,"(-480.0, 270.0)",0,812.5162000069395,812.4975000100676,True,False
13,2,180.91843049999443,star,"(-480.0, 270.0)",0,829.5240000006743,829.5053000038024,True,False
13,2,180.93596400000388,star,"(-480.0, 270.0)",0,847.0575000101235,847.0388000132516,True,False
13,2,180.95256090001203,star,"(-480.0, 270.0)",0,863.6544000182766,863.6357000214048,True,False
13,2,180.96851760000573,star,"(-480.0, 270.0)",0,879.6111000119708,879.592400015099,True,False
13,2,180.98411510000005,star,"(-480.0, 270.0)",0,895.2086000062991,895.1899000094272,True,False
13,2,181.0021613999852,star,"(-480.0, 270.0)",0,913.2548999914434,913.2361999945715,True,False
13,2,181.01767249999102,star,"(-480.0, 270.0)",0,928.7659999972675,928.7473000003956,True,False
13,2,181.03569150000112,star,"(-480.0, 270.0)",0,946.7850000073668,946.7663000104949,True,False
13,2,181.03790379999555,circle,"(-480.0, -270.0)",266.5444999875035,948.9973000017926,948.9786000049207,True,False
13,2,181.0548114000121,circle,"(-480.0, -270.0)",0,965.9049000183586,965.8862000214867,True,False
13,2,181.06950979999965,circle,"(-480.0, -270.0)",0,980.603300005896,980.5846000090241,True,False
13,2,181.08489910000935,circle,"(-480.0, -270.0)",0,995.9926000155974,995.9739000187255,True,False
13,2,181.10176719998708,circle,"(-480.0, -270.0)",0,1012.8606999933254,1012.8419999964535,True,False
13,2,181.11817929998506,circle,"(-480.0, -270.0)",0,1029.272799991304,1029.2540999944322,True,False
13,2,181.13518909999402,circle,"(-480.0, -270.0)",0,1046.2826000002678,1046.263900003396,True,False
13,2,181.15123700001277,circle,"(-480.0, -270.0)",0,1062.3305000190157,1062.3118000221439,True,False
13,2,181.16850189998513,circle,"(-480.0, -270.0)",0,1079.5953999913763,1079.5766999945045,True,False
13,2,181.19027570000617,circle,"(-480.0, -270.0)",0,1101.3692000124138,1101.350500015542,True,False
13,2,181.20377279998502,circle,"(-480.0, -270.0)",0,1114.866299991263,1114.8475999943912,True,False
13,2,181.21734110001125,circle,"(-480.0, -270.0)",0,1128.4346000174992,1128.4159000206273,True,False
13,2,181.23473289998947,circle,"(-480.0, -270.0)",0,1145.8263999957126,1145.8076999988407,True,False
13,2,181.2518674999883,circle,"(-480.0, -270.0)",0,1162.9609999945387,1162.9422999976669,True,False
13,2,181.26825250001275,circle,"(-480.0, -270.0)",0,1179.3460000189953,1179.3273000221234,True,False
13,2,181.28555070000584,circle,"(-480.0, -270.0)",0,1196.6442000120878,1196.625500015216,True,False
13,2,181.3019057000056,circle,"(-480.0, -270.0)",0,1212.9992000118364,1212.9805000149645,True,False
13,2,181.3193515999883,circle,"(-480.0, -270.0)",0,1230.4450999945402,1230.4263999976683,True,False
13,2,181.33686280000256,circle,"(-480.0, -270.0)",0,1247.9563000088092,1247.9376000119373,True,False
13,2,181.35154740000144,circle,"(-480.0, -270.0)",0,1262.640900007682,1262.62220001081,True,False
13,2,181.36909220000962,circle,"(-480.0, -270.0)",0,1280.1857000158634,1280.1670000189915,True,False
13,2,181.38447109999834,circle,"(-480.0, -270.0)",0,1295.5646000045817,1295.5459000077099,True,False
13,2,181.40150300000096,circle,"(-480.0, -270.0)",0,1312.5965000072028,1312.577800010331,True,False
13,2,181.41737670000293,circle,"(-480.0, -270.0)",0,1328.4702000091784,1328.4515000123065,True,False
13,2,181.4347870000056,circle,"(-480.0, -270.0)",0,1345.8805000118446,1345.8618000149727,True,False
13,2,181.45127089999733,circle,"(-480.0, -270.0)",0,1362.364400003571,1362.3457000066992,True,False
13,2,181.4681134999846,circle,"(-480.0, -270.0)",0,1379.2069999908563,1379.1882999939844,True,False
13,2,181.48803229999612,circle,"(-480.0, -270.0)",0,1399.1258000023663,1399.1071000054944,True,False
13,2,181.50200879998738,circle,"(-480.0, -270.0)",0,1413.102299993625,1413.083599996753,True,False
13,2,181.51843309999094,circle,"(-480.0, -270.0)",0,1429.526599997189,1429.507900000317,True,False
13,2,181.5347184999846,circle,"(-480.0, -270.0)",0,1445.8119999908376,1445.7932999939658,True,False
13,2,181.55118549999315,circle,"(-480.0, -270.0)",0,1462.2789999993984,1462.2603000025265,True,False
13,2,181.56959900000948,circle,"(-480.0, -270.0)",0,1480.6925000157207,1480.6738000188489,True,False
13,2,181.58503940000082,circle,"(-480.0, -270.0)",0,1496.132900007069,1496.1142000101972,True,False
13,2,181.6024410999962,circle,"(-480.0, -270.0)",0,1513.5346000024583,1513.5159000055864,True,False
13,2,181.61795529999654,circle,"(-480.0, -270.0)",0,1529.0488000027835,1529.0301000059117,True,False
13,2,181.635429499991,circle,"(-480.0, -270.0)",0,1546.5229999972507,1546.5043000003789,True,False
13,2,181.6521994000068,circle,"(-480.0, -270.0)",0,1563.292900013039,1563.274200016167,True,False
13,2,181.6685804000008,circle,"(-480.0, -270.0)",0,1579.6739000070374,1579.6552000101656,True,False
13,2,181.68491750000976,circle,"(-480.0, -270.0)",0,1596.0110000160057,1595.9923000191338,True,False
13,2,181.7019977000018,circle,"(-480.0, -270.0)",0,1613.091200008057,1613.0725000111852,True,False
13,2,181.71787749999203,circle,"(-480.0, -270.0)",0,1628.9709999982733,1628.9523000014015,True,False
13,2,181.73592619999545,circle,"(-480.0, -270.0)",0,1647.0197000016924,1647.0010000048205,True,False
13,2,181.75195480001275,circle,"(-480.0, -270.0)",0,1663.0483000189997,1663.0296000221279,True,False
13,2,181.76897199999075,circle,"(-480.0, -270.0)",0,1680.0654999969993,1680.0468000001274,True,False
13,2,181.78428600000916,circle,"(-480.0, -270.0)",0,1695.379500015406,1695.360800018534,True,False
13,2,181.80147390000639,circle,"(-480.0, -270.0)",0,1712.567400012631,1712.548700015759,True,False
13,2,181.81855560000986,circle,"(-480.0, -270.0)",0,1729.649100016104,1729.6304000192322,True,False
13,2,181.8344594000082,circle,"(-480.0, -270.0)",0,1745.5529000144452,1745.5342000175733,True,False
13,2,181.8515866000089,circle,"(-480.0, -270.0)",0,1762.6801000151318,1762.6614000182599,True,False
13,2,181.86801780000678,circle,"(-480.0, -270.0)",0,1779.111300013028,1779.0926000161562,True,False
14,1,187.38527189998422,circle,"(-480.0, -270.0)",0,0.021899992134422064,0.021899992134422064,False,True
14,2,187.79974369998672,t,"(480.0, 270.0)",251.65629998082295,414.4936999946367,414.4718000025023,True,False
14,2,187.81903199999942,t,"(480.0, 270.0)",0,433.7820000073407,433.76010001520626,True,False
14,2,187.83294279998518,t,"(480.0, 270.0)",0,447.6927999930922,447.6709000009578,True,False
14,2,187.84918339998694,t,"(480.0, 270.0)",0,463.9333999948576,463.9115000027232,True,False
14,2,187.86646270001074,t,"(480.0, 270.0)",0,481.21270001865923,481.1908000265248,True,False
14,2,187.88212289998773,t,"(480.0, 270.0)",0,496.8728999956511,496.8510000035167,True,False
14,2,187.89954370001215,t,"(480.0, 270.0)",0,514.2937000200618,514.2718000279274,True,False
14,2,187.9153721999901,t,"(480.0, 270.0)",0,530.1221999980044,530.1003000058699,True,False
14,2,187.93245839999872,t,"(480.0, 270.0)",0,547.2084000066388,547.1865000145044,True,False
14,2,187.94869009999093,t,"(480.0, 270.0)",0,563.4400999988429,563.4182000067085,True,False
14,2,187.96671169999172,t,"(480.0, 270.0)",0,581.461699999636,581.4398000075016,True,False
14,2,187.98299200000474,t,"(480.0, 270.0)",0,597.7420000126585,597.7201000205241,True,False
14,2,188.0000863999885,t,"(480.0, 270.0)",0,614.8363999964204,614.814500004286,True,False
14,2,188.01760600000853,t,"(480.0, 270.0)",0,632.3560000164434,632.334100024309,True,False
14,2,188.03318830000353,t,"(480.0, 270.0)",0,647.9383000114467,647.9164000193123,True,False
14,2,188.04965800000355,t,"(480.0, 270.0)",0,664.4080000114627,664.3861000193283,True,False
14,2,188.06696989998454,t,"(480.0, 270.0)",0,681.7198999924585,681.6980000003241,True,False
14,2,188.08282469998812,t,"(480.0, 270.0)",0,697.5746999960393,697.5528000039048,True,False
14,2,188.10018249999848,t,"(480.0, 270.0)",0,714.9325000063982,714.9106000142638,True,False
14,2,188.1159447999962,t,"(480.0, 270.0)",0,730.6948000041302,730.6729000119958,True,False
14,2,188.13285809999797,t,"(480.0, 270.0)",0,747.6081000058912,747.5862000137568,True,False
14,2,188.14884660000098,t,"(480.0, 270.0)",0,763.5966000088956,763.5747000167612,True,False
14,2,188.1655710999912,t,"(480.0, 270.0)",0,780.3210999991279,780.2992000069935,True,False
14,2,188.18213500001002,t,"(480.0, 270.0)",0,796.8850000179373,796.8631000258029,True,False
14,2,188.19981389999157,t,"(480.0, 270.0)",0,814.5638999994844,814.54200000735,True,False
14,2,188.21552050000173,t,"(480.0, 270.0)",0,830.2705000096466,830.2486000175122,True,False
14,2,188.23286779999034,t,"(480.0, 270.0)",0,847.617799998261,847.5959000061266,True,False
14,2,188.24875520000933,t,"(480.0, 270.0)",0,863.5052000172436,863.4833000251092,True,False
14,2,188.26654640000197,t,"(480.0, 270.0)",0,881.2964000098873,881.2745000177529,True,False
14,2,188.2820778999885,t,"(480.0, 270.0)",0,896.8278999964241,896.8060000042897,True,False
14,2,188.28404440000304,circle,"(-480.0, -270.0)",264.73799999803305,898.7944000109565,898.772500018822,True,False
14,2,188.30295419998583,circle,"(-480.0, -270.0)",0,917.7041999937501,917.6823000016157,True,False
14,2,188.3165643000102,circle,"(-480.0, -270.0)",0,931.3143000181299,931.2924000259954,True,False
14,2,188.3332897000073,circle,"(-480.0, -270.0)",0,948.0397000152152,948.0178000230808,True,False
14,2,188.349323500006,circle,"(-480.0, -270.0)",0,964.0735000139102,964.0516000217758,True,False
14,2,188.36673899999005,circle,"(-480.0, -270.0)",0,981.4889999979641,981.4671000058297,True,False
14,2,188.38313880001078,circle,"(-480.0, -270.0)",0,997.8888000186998,997.8669000265654,True,False
14,2,188.39888799999608,circle,"(-480.0, -270.0)",0,1013.6380000039935,1013.6161000118591,True,False
14,2,188.41505199999665,circle,"(-480.0, -270.0)",0,1029.8020000045653,1029.780100012431,True,False
14,2,188.4385476000025,circle,"(-480.0, -270.0)",0,1053.29760001041,1053.2757000182755,True,False
14,2,188.44927730000927,circle,"(-480.0, -270.0)",0,1064.0273000171874,1064.005400025053,True,False
14,2,188.46809479998774,circle,"(-480.0, -270.0)",0,1082.8447999956552,1082.8229000035208,True,False
14,2,188.48187529999996,circle,"(-480.0, -270.0)",0,1096.6253000078723,1096.6034000157379,True,False
14,2,188.50036109998473,circle,"(-480.0, -270.0)",0,1115.111099992646,1115.0892000005115,True,False
14,2,188.5157668000029,circle,"(-480.0, -270.0)",0,1130.5168000108097,1130.4949000186753,True,False
14,2,188.53301549999742,circle,"(-480.0, -270.0)",0,1147.7655000053346,1147.7436000132002,True,False
14,2,188.54958339998848,circle,"(-480.0, -270.0)",0,1164.3333999963943,1164.3115000042599,True,False
14,2,188.56665419999626,circle,"(-480.0, -270.0)",0,1181.404200004181,1181.3823000120465,True,False
14,2,188.5825358000002,circle,"(-480.0, -270.0)",0,1197.2858000081033,1197.2639000159688,True,False
14,2,188.59899759999826,circle,"(-480.0, -270.0)",0,1213.7476000061724,1213.725700014038,True,False
14,2,188.61533639999107,circle,"(-480.0, -270.0)",0,1230.0863999989815,1230.064500006847,True,False
14,2,188.63460299998405,circle,"(-480.0, -270.0)",0,1249.3529999919701,1249.3310999998357,True,False
14,2,188.64843299999484,circle,"(-480.0, -270.0)",0,1263.1830000027549,1263.1611000106204,True,False
14,2,188.6678455999936,circle,"(-480.0, -270.0)",0,1282.595600001514,1282.5737000093795,True,False
14,2,188.6821756999998,circle,"(-480.0, -270.0)",0,1296.925700007705,1296.9038000155706,True,False
14,2,188.6991163000057,circle,"(-480.0, -270.0)",0,1313.8663000136148,1313.8444000214804,True,False
14,2,188.71620999998413,circle,"(-480.0, -270.0)",0,1330.9599999920465,1330.938099999912,True,False
14,2,188.73334599999362,circle,"(-480.0, -270.0)",0,1348.096000001533,1348.0741000093985,True,False
14,2,188.7500224999967,circle,"(-480.0, -270.0)",0,1364.7725000046194,1364.750600012485,True,False
14,2,188.76691899998696,circle,"(-480.0, -270.0)",0,1381.6689999948721,1381.6471000027377,True,False
14,2,188.78262290000566,circle,"(-480.0, -270.0)",0,1397.372900013579,1397.3510000214446,True,False
14,2,188.7998884000117,circle,"(-480.0, -270.0)",0,1414.6384000196122,1414.6165000274777,True,False
14,2,188.81512680000742,circle,"(-480.0, -270.0)",0,1429.876800015336,1429.8549000232015,True,False
14,2,188.83311390000745,circle,"(-480.0, -270.0)",0,1447.8639000153635,1447.842000023229,True,False
14,2,188.84838680000394,circle,"(-480.0, -270.0)",0,1463.1368000118528,1463.1149000197183,True,False
14,2,188.8666258000012,circle,"(-480.0, -270.0)",0,1481.3758000091184,1481.353900016984,True,False
14,2,188.88204779999796,circle,"(-480.0, -270.0)",0,1496.7978000058793,1496.7759000137448,True,False
14,2,188.8992134,circle,"(-480.0, -270.0)",0,1513.963400007924,1513.9415000157896,True,False
14,2,188.91584000000148,circle,"(-480.0, -270.0)",0,1530.590000009397,1530.5681000172626,True,False
14,2,188.93316099999356,circle,"(-480.0, -270.0)",0,1547.911000001477,1547.8891000093427,True,False
14,2,188.95000949999667,circle,"(-480.0, -270.0)",0,1564.759500004584,1564.7376000124495,True,False
14,2,188.96690339999623,circle,"(-480.0, -270.0)",0,1581.653400004143,1581.6315000120085,True,False
14,2,188.9829926000093,circle,"(-480.0, -270.0)",0,1597.7426000172272,1597.7207000250928,True,False
14,2,189.00031780000427,circle,"(-480.0, -270.0)",0,1615.0678000121843,1615.0459000200499,True,False
14,2,189.01637409999967,circle,"(-480.0, -270.0)",0,1631.1241000075825,1631.102200015448,True,False
14,2,189.0323178000108,circle,"(-480.0, -270.0)",0,1647.0678000187036,1647.0459000265691,True,False
14,2,189.04834629999823,circle,"(-480.0, -270.0)",0,1663.0963000061456,1663.0744000140112,True,False
14,2,189.06557320000138,circle,"(-480.0, -270.0)",0,1680.3232000092976,1680.3013000171632,True,False
14,2,189.0819533999893,circle,"(-480.0, -270.0)",0,1696.7033999972045,1696.6815000050701,True,False
14,2,189.09865609998815,circle,"(-480.0, -270.0)",0,1713.4060999960639,1713.3842000039294,True,False
14,2,189.11958779999986,circle,"(-480.0, -270.0)",0,1734.3378000077792,1734.3159000156447,True,False
14,2,189.13347860000795,circle,"(-480.0, -270.0)",0,1748.2286000158638,1748.2067000237294,True,False
14,2,189.14842539999518,circle,"(-480.0, -270.0)",0,1763.1754000030924,1763.153500010958,True,False
14,2,189.16714410000714,circle,"(-480.0, -270.0)",0,1781.8941000150517,1781.8722000229172,True,False
15,1,201.44636149998405,circle,"(-480.0, -270.0)",0,0.020799983758479357,0.020799983758479357,False,True
15,2,201.71010060000117,t,"(480.0, 270.0)",261.86860000598244,263.7599000008777,263.7391000171192,True,False
15,2,201.73160930001177,t,"(480.0, 270.0)",0,285.26860001147725,285.24780002771877,True,False
15,2,201.74365749998833,t,"(480.0, 270.0)",0,297.31679998803884,297.29600000428036,True,False
15,2,201.76075340001262,t,"(480.0, 270.0)",0,314.41270001232624,314.39190002856776,True,False
15,2,201.77741010001046,t,"(480.0, 270.0)",0,331.0694000101648,331.04860002640635,True,False
15,2,201.79456350000692,t,"(480.0, 270.0)",0,348.2228000066243,348.20200002286583,True,False
15,2,201.81082119999337,t,"(480.0, 270.0)",0,364.4804999930784,364.45970000931993,True,False
15,2,201.82782219999353,t,"(480.0, 270.0)",0,381.4814999932423,381.46070000948384,True,False
15,2,201.8442386999959,t,"(480.0, 270.0)",0,397.8979999956209,397.87720001186244,True,False
15,2,201.86119289998896,t,"(480.0, 270.0)",0,414.8521999886725,414.83140000491403,True,False
15,2,201.87650919999578,t,"(480.0, 270.0)",0,430.1684999954887,430.1477000117302,True,False
15,2,201.89423470001202,t,"(480.0, 270.0)",0,447.8940000117291,447.8732000279706,True,False
15,2,201.9099070999946,t,"(480.0, 270.0)",0,463.56639999430627,463.5456000105478,True,False
15,2,201.92730479998863,t,"(480.0, 270.0)",0,480.96409998834133,480.94330000458285,True,False
15,2,201.94325360000948,t,"(480.0, 270.0)",0,496.9129000091925,496.89210002543405,True,False
15,2,201.96053199999733,t,"(480.0, 270.0)",0,514.1912999970373,514.1705000132788,True,False
15,2,201.97662179998588,t,"(480.0, 270.0)",0,530.2810999855865,530.260300001828,True,False
15,2,201.9943409000116,t,"(480.0, 270.0)",0,548.0002000113018,547.9794000275433,True,False
15,2,202.01068159998977,t,"(480.0, 270.0)",0,564.3408999894746,564.3201000057161,True,False
15,2,202.02766100000008,t,"(480.0, 270.0)",0,581.3202999997884,581.2995000160299,True,False
15,2,202.04397790000075,t,"(480.0, 270.0)",0,597.637200000463,597.6164000167046,True,False
15,2,202.06095189999905,t,"(480.0, 270.0)",0,614.6111999987625,614.590400015004,True,False
15,2,202.07966990000568,t,"(480.0, 270.0)",0,633.3292000053916,633.3084000216331,True,False
15,2,202.09369259999949,t,"(480.0, 270.0)",0,647.3518999991938,647.3311000154354,True,False
15,2,202.10974270000588,t,"(480.0, 270.0)",0,663.4020000055898,663.3812000218313,True,False
15,2,202.12816170000588,t,"(480.0, 270.0)",0,681.8210000055842,681.8002000218257,True,False
15,2,202.1435344000056,t,"(480.0, 270.0)",0,697.1937000053003,697.1729000215419,True,False
15,2,202.1606892000127,t,"(480.0, 270.0)",0,714.3485000124201,714.3277000286616,True,False
15,2,202.17666450000252,t,"(480.0, 270.0)",0,730.3238000022247,730.3030000184663,True,False
15,2,202.19446790000075,t,"(480.0, 270.0)",0,748.1272000004537,748.1064000166953,True,False
15,2,202.19726990000345,circle,"(-480.0, -270.0)",267.25920001626946,750.9292000031564,750.908400019398,True,False
15,2,202.213623299991,circle,"(-480.0, -270.0)",0,767.2825999907218,767.2618000069633,True,False
15,2,202.22728389999247,circle,"(-480.0, -270.0)",0,780.9431999921799,780.9224000084214,True,False
15,2,202.2430073999858,circle,"(-480.0, -270.0)",0,796.6666999855079,796.6459000017494,True,False
15,2,202.2604799999972,circle,"(-480.0, -270.0)",0,814.1392999968957,814.1185000131372,True,False
15,2,202.2773245999997,circle,"(-480.0, -270.0)",0,830.9838999994099,830.9631000156514,True,False
15,2,202.29434659998515,circle,"(-480.0, -270.0)",0,848.0058999848552,847.9851000010967,True,False
15,2,202.31055639998522,circle,"(-480.0, -270.0)",0,864.2156999849249,864.1949000011664,True,False
15,2,202.32754850000492,circle,"(-480.0, -270.0)",0,881.2078000046313,881.1870000208728,True,False
15,2,202.34390089998487,circle,"(-480.0, -270.0)",0,897.5601999845821,897.5394000008237,True,False
15,2,202.36141779998434,circle,"(-480.0, -270.0)",0,915.0770999840461,915.0563000002876,True,False
15,2,202.3772645999852,circle,"(-480.0, -270.0)",0,930.9238999849185,930.90310000116,True,False
15,2,202.39369799999986,circle,"(-480.0, -270.0)",0,947.3572999995667,947.3365000158083,True,False
15,2,202.41039929998806,circle,"(-480.0, -270.0)",0,964.0585999877658,964.0378000040073,True,False
15,2,202.42727419998846,circle,"(-480.0, -270.0)",0,980.9334999881685,980.91270000441,True,False
15,2,202.44312979999813,circle,"(-480.0, -270.0)",0,996.7890999978408,996.7683000140823,True,False
15,2,202.4604233999853,circle,"(-480.0, -270.0)",0,1014.0826999850105,1014.0619000012521,True,False
15,2,202.47647180000786,circle,"(-480.0, -270.0)",0,1030.1311000075657,1030.1103000238072,True,False
15,2,202.49378339998657,circle,"(-480.0, -270.0)",0,1047.4426999862771,1047.4219000025187,True,False
15,2,202.51056649998645,circle,"(-480.0, -270.0)",0,1064.2257999861613,1064.2050000024028,True,False
15,2,202.5276632999885,circle,"(-480.0, -270.0)",0,1081.322599988198,1081.3018000044394,True,False
15,2,202.54381780000404,circle,"(-480.0, -270.0)",0,1097.4771000037435,1097.456300019985,True,False
15,2,202.56093559999135,circle,"(-480.0, -270.0)",0,1114.5948999910615,1114.574100007303,True,False
15,2,202.57718930000556,circle,"(-480.0, -270.0)",0,1130.8486000052653,1130.8278000215068,True,False
15,2,202.59417269998812,circle,"(-480.0, -270.0)",0,1147.8319999878295,1147.811200004071,True,False
15,2,202.61044190000393,circle,"(-480.0, -270.0)",0,1164.1012000036426,1164.080400019884,True,False
15,2,202.62760189999244,circle,"(-480.0, -270.0)",0,1181.26119999215,1181.2404000083916,True,False
15,2,202.64238750000368,circle,"(-480.0, -270.0)",0,1196.046800003387,1196.0260000196286,True,False
15,2,202.66047309999703,circle,"(-480.0, -270.0)",0,1214.1323999967426,1214.1116000129841,True,False
15,2,202.67658110000775,circle,"(-480.0, -270.0)",0,1230.2404000074603,1230.2196000237018,True,False
15,2,202.693701399985,circle,"(-480.0, -270.0)",0,1247.3606999847107,1247.3399000009522,True,False
15,2,202.70992180000758,circle,"(-480.0, -270.0)",0,1263.5811000072863,1263.5603000235278,True,False
15,2,202.7269265000068,circle,"(-480.0, -270.0)",0,1280.58580000652,1280.5650000227615,True,False
15,2,202.74377130001085,circle,"(-480.0, -270.0)",0,1297.430600010557,1297.4098000267986,True,False
15,2,202.76084299999638,circle,"(-480.0, -270.0)",0,1314.502299996093,1314.4815000123344,True,False
15,2,202.77705860001151,circle,"(-480.0, -270.0)",0,1330.7179000112228,1330.6971000274643,True,False
15,2,202.7942197000084,circle,"(-480.0, -270.0)",0,1347.8790000081062,1347.8582000243478,True,False
15,2,202.81039259998943,circle,"(-480.0, -270.0)",0,1364.0518999891356,1364.031100005377,True,False
15,2,202.82734889999847,circle,"(-480.0, -270.0)",0,1381.0081999981776,1380.987400014419,True,False
15,2,202.84253900000476,circle,"(-480.0, -270.0)",0,1396.198300004471,1396.1775000207126,True,False
15,2,202.85995019998518,circle,"(-480.0, -270.0)",0,1413.6094999848865,1413.588700001128,True,False
15,2,202.87644590000855,circle,"(-480.0, -270.0)",0,1430.1052000082564,1430.0844000244979,True,False
15,2,202.89790360000916,circle,"(-480.0, -270.0)",0,1451.5629000088666,1451.542100025108,True,False
15,2,202.91044089998468,circle,"(-480.0, -270.0)",0,1464.1001999843866,1464.079400000628,True,False
15,2,202.92735139999422,circle,"(-480.0, -270.0)",0,1481.0106999939308,1480.9899000101723,True,False
15,2,202.94400039999164,circle,"(-480.0, -270.0)",0,1497.6596999913454,1497.638900007587,True,False
15,2,202.9607990999939,circle,"(-480.0, -270.0)",0,1514.4583999936003,1514.4376000098418,True,False
15,2,202.9771505999961,circle,"(-480.0, -270.0)",0,1530.809899995802,1530.7891000120435,True,False
15,2,202.99409180000657,circle,"(-480.0, -270.0)",0,1547.7511000062805,1547.730300022522,True,False
15,2,203.01062749998528,circle,"(-480.0, -270.0)",0,1564.286799984984,1564.2660000012256,True,False
15,2,203.02738479999243,circle,"(-480.0, -270.0)",0,1581.0440999921411,1581.0233000083826,True,False
15,2,203.04393369998434,circle,"(-480.0, -270.0)",0,1597.5929999840446,1597.572200000286,True,False
15,2,203.0600024999876,circle,"(-480.0, -270.0)",0,1613.6617999873124,1613.641000003554,True,False
15,2,203.07568670000182,circle,"(-480.0, -270.0)",0,1629.346000001533,1629.3252000177745,True,False
15,2,203.0935945000092,circle,"(-480.0, -270.0)",0,1647.2538000089116,1647.2330000251532,True,False
15,2,203.10956219999935,circle,"(-480.0, -270.0)",0,1663.2214999990538,1663.2007000152953,True,False
15,2,203.12698369999998,circle,"(-480.0, -270.0)",0,1680.6429999996908,1680.6222000159323,True,False
15,2,203.144085500011,circle,"(-480.0, -270.0)",0,1697.744800010696,1697.7240000269376,True,False
15,2,203.16038839999237,circle,"(-480.0, -270.0)",0,1714.0476999920793,1714.0269000083208,True,False
15,2,203.17624599998817,circle,"(-480.0, -270.0)",0,1729.9052999878768,1729.8845000041183,True,False
15,2,203.19440040001064,circle,"(-480.0, -270.0)",0,1748.0597000103444,1748.038900026586,True,False
15,2,203.21049520000815,circle,"(-480.0, -270.0)",0,1764.1545000078622,1764.1337000241037,True,False
15,2,203.2274793999968,circle,"(-480.0, -270.0)",0,1781.138699996518,1781.1179000127595,True,False
15,2,203.52692649999517,star,"(-480.0, 270.0)",250.2870000025723,2080.5857999948785,2080.56500001112,False,True
15,3,203.8607825000072,t,"(480.0, 270.0)",266.66590000968426,2414.441800006898,333.85600001201965,True,False
15,3,203.87916690000566,t,"(480.0, 270.0)",0,2432.8262000053655,352.24040001048706,True,False
15,3,203.89843739999924,t,"(480.0, 270.0)",0,2452.096699998947,371.5109000040684,True,False
15,3,203.90975849999813,t,"(480.0, 270.0)",0,2463.417799997842,382.83200000296347,True,False
15,3,203.9269754999841,t,"(480.0, 270.0)",0,2480.634799983818,400.0489999889396,True,False
15,3,203.94399460000568,t,"(480.0, 270.0)",0,2497.653900005389,417.06810001051053,True,False
15,3,203.96085000000312,t,"(480.0, 270.0)",0,2514.5093000028282,433.92350000794977,True,False
15,3,203.9770189000119,t,"(480.0, 270.0)",0,2530.6782000116073,450.0924000167288,True,False
15,3,203.9941053999937,t,"(480.0, 270.0)",0,2547.7646999934223,467.1788999985438,True,False
15,3,204.01028240000596,t,"(480.0, 270.0)",0,2563.941700005671,483.35590001079254,True,False
15,3,204.02740150000318,t,"(480.0, 270.0)",0,2581.060800002888,500.4750000080094,True,False
15,3,204.04363699999521,t,"(480.0, 270.0)",0,2597.296299994923,516.7105000000447,True,False
15,3,204.0604791000078,t,"(480.0, 270.0)",0,2614.138400007505,533.5526000126265,True,False
15,3,204.07529569999315,t,"(480.0, 270.0)",0,2628.9549999928568,548.3691999979783,True,False
15,3,204.09371549999923,t,"(480.0, 270.0)",0,2647.3747999989428,566.7890000040643,True,False
15,3,204.10893529999885,t,"(480.0, 270.0)",0,2662.594599998556,582.0088000036776,True,False
15,3,204.12660280001,t,"(480.0, 270.0)",0,2680.2621000097133,599.6763000148349,True,False
15,3,204.14237990000402,t,"(480.0, 270.0)",0,2696.0392000037245,615.4534000088461,True,False
15,3,204.1600172999897,t,"(480.0, 270.0)",0,2713.6765999894124,633.0907999945339,True,False
15,3,204.17600179999135,t,"(480.0, 270.0)",0,2729.6610999910627,649.0752999961842,True,False
15,3,204.19351989999996,t,"(480.0, 270.0)",0,2747.179199999664,666.5934000047855,True,False
15,3,204.21050379998633,t,"(480.0, 270.0)",0,2764.1630999860354,683.5772999911569,True,False
15,3,204.22724730000482,t,"(480.0, 270.0)",0,2780.9066000045277,700.3208000096492,True,False
15,3,204.2436158999917,t,"(480.0, 270.0)",0,2797.275199991418,716.6893999965396,True,False
15,3,204.2604682999954,t,"(480.0, 270.0)",0,2814.1275999951176,733.5418000002392,True,False
15,3,204.2765936999931,t,"(480.0, 270.0)",0,2830.2529999928083,749.6671999979299,True,False
15,3,204.29360639999504,t,"(480.0, 270.0)",0,2847.2656999947503,766.6798999998719,True,False
15,3,204.3102312000119,t,"(480.0, 270.0)",0,2863.890500011621,783.3047000167426,True,False
15,3,204.32603409999865,t,"(480.0, 270.0)",0,2879.6933999983594,799.1076000034809,True,False
15,3,204.34181579999859,t,"(480.0, 270.0)",0,2895.4750999982934,814.889300003415,True,False
15,3,204.35925800001132,t,"(480.0, 270.0)",0,2912.9173000110313,832.3315000161529,True,False
15,3,204.37520149999182,t,"(480.0, 270.0)",0,2928.8607999915257,848.2749999966472,True,False
15,3,204.3929843000078,t,"(480.0, 270.0)",0,2946.643600007519,866.0578000126407,True,False
15,3,204.40868890000274,t,"(480.0, 270.0)",0,2962.3482000024524,881.7624000075739,True,False
15,3,204.42610479998984,t,"(480.0, 270.0)",0,2979.764099989552,899.1782999946736,True,False
15,3,204.4421994999866,t,"(480.0, 270.0)",0,2995.8587999863084,915.27299999143,True,False
15,3,204.45952430000762,t,"(480.0, 270.0)",0,3013.1836000073235,932.5978000124451,True,False
15,3,204.47607209999114,t,"(480.0, 270.0)",0,3029.731399990851,949.1455999959726,True,False
15,3,204.49330140001257,t,"(480.0, 270.0)",0,3046.960700012278,966.3749000173993,True,False
15,3,204.50951249999343,t,"(480.0, 270.0)",0,3063.1717999931425,982.585999998264,True,False
15,3,204.52637279999908,t,"(480.0, 270.0)",0,3080.032099998789,999.4463000039104,True,False
15,3,204.54282430000603,t,"(480.0, 270.0)",0,3096.4836000057403,1015.8978000108618,True,False
15,3,204.55972990000737,t,"(480.0, 270.0)",0,3113.3892000070773,1032.8034000121988,True,False
15,3,204.5748745999881,t,"(480.0, 270.0)",0,3128.533899987815,1047.9480999929365,True,False
15,3,204.59324610000476,t,"(480.0, 270.0)",0,3146.9054000044707,1066.3196000095922,True,False
15,3,204.6082580999937,t,"(480.0, 270.0)",0,3161.917399993399,1081.3315999985207,True,False
15,3,204.62619020001148,t,"(480.0, 270.0)",0,3179.849500011187,1099.2637000163086,True,False
15,3,204.6423025999975,t,"(480.0, 270.0)",0,3195.961899997201,1115.3761000023223,True,False
15,3,204.65966889998526,t,"(480.0, 270.0)",0,3213.3281999849714,1132.742399990093,True,False
15,3,204.67543410000508,t,"(480.0, 270.0)",0,3229.0934000047855,1148.507600009907,True,False
15,3,204.69340690001263,t,"(480.0, 270.0)",0,3247.066200012341,1166.4804000174627,True,False
15,3,204.70968020000146,t,"(480.0, 270.0)",0,3263.339500001166,1182.7537000062875,True,False
15,3,204.72731479999493,t,"(480.0, 270.0)",0,3280.974099994637,1200.3882999997586,True,False
15,3,204.74307669998962,t,"(480.0, 270.0)",0,3296.7359999893233,1216.1501999944448,True,False
15,3,204.76028889999725,t,"(480.0, 270.0)",0,3313.9481999969576,1233.362400002079,True,False
15,3,204.77517780000926,t,"(480.0, 270.0)",0,3328.8371000089683,1248.2513000140898,True,False
15,3,204.79284859998734,t,"(480.0, 270.0)",0,3346.5078999870457,1265.9220999921672,True,False
15,3,204.81010130001232,t,"(480.0, 270.0)",0,3363.7606000120286,1283.1748000171501,True,False
15,3,204.8262481999991,t,"(480.0, 270.0)",0,3379.907499998808,1299.3217000039294,True,False
15,3,204.84220909999567,t,"(480.0, 270.0)",0,3395.868399995379,1315.2826000005007,True,False
15,3,204.85935809998773,t,"(480.0, 270.0)",0,3413.0173999874387,1332.4315999925602,True,False
15,3,204.87532970000757,t,"(480.0, 270.0)",0,3428.9890000072774,1348.4032000123989,True,False
15,3,204.89300260000164,t,"(480.0, 270.0)",0,3446.661900001345,1366.0761000064667,True,False
15,3,204.90937109998777,t,"(480.0, 270.0)",0,3463.030399987474,1382.4445999925956,True,False
15,3,204.9266146000009,t,"(480.0, 270.0)",0,3480.2739000006113,1399.6881000057328,True,False
15,3,204.94307519998983,t,"(480.0, 270.0)",0,3496.734499989543,1416.1486999946646,True,False
15,3,204.95972360001178,t,"(480.0, 270.0)",0,3513.382900011493,1432.7971000166144,True,False
15,3,204.97604050001246,t,"(480.0, 270.0)",0,3529.6998000121675,1449.114000017289,True,False
15,3,204.99297029999434,t,"(480.0, 270.0)",0,3546.6295999940485,1466.04379999917,True,False
15,3,205.00837120000506,t,"(480.0, 270.0)",0,3562.0305000047665,1481.444700009888,True,False
15,3,205.02596090000588,t,"(480.0, 270.0)",0,3579.620200005593,1499.0344000107143,True,False
15,3,205.04196380000212,t,"(480.0, 270.0)",0,3595.6231000018306,1515.0373000069521,True,False
15,3,205.05924669999513,t,"(480.0, 270.0)",0,3612.9059999948367,1532.3201999999583,True,False
15,3,205.07543409999926,t,"(480.0, 270.0)",0,3629.0933999989647,1548.5076000040863,True,False
15,3,205.09245210001245,t,"(480.0, 270.0)",0,3646.1114000121597,1565.5256000172812,True,False
15,3,205.10961220000172,t,"(480.0, 270.0)",0,3663.2715000014286,1582.6857000065502,True,False
15,3,205.1270108000026,t,"(480.0, 270.0)",0,3680.6701000023168,1600.0843000074383,True,False
15,3,205.1427454999939,t,"(480.0, 270.0)",0,3696.4047999936156,1615.8189999987371,True,False
15,3,205.1594913000008,t,"(480.0, 270.0)",0,3713.1506000005174,1632.564800005639,True,False
15,3,205.17594340001233,t,"(480.0, 270.0)",0,3729.6027000120375,1649.016900017159,True,False
15,3,205.19278740001027,t,"(480.0, 270.0)",0,3746.446700009983,1665.8609000151046,True,False
15,3,205.2093196999922,t,"(480.0, 270.0)",0,3762.978999991901,1682.3931999970227,True,False
15,3,205.2254471000051,t,"(480.0, 270.0)",0,3779.106400004821,1698.5206000099424,True,False
15,3,205.24117029999616,t,"(480.0, 270.0)",0,3794.8295999958646,1714.243800000986,True,False
15,3,205.25927010001033,t,"(480.0, 270.0)",0,3812.9294000100344,1732.343600015156,True,False
15,3,205.2749163999979,t,"(480.0, 270.0)",0,3828.5756999976,1747.9899000027217,True,False
15,3,205.2927381999907,t,"(480.0, 270.0)",0,3846.3974999904167,1765.8116999955382,True,False
15,3,205.30826510000043,t,"(480.0, 270.0)",0,3861.9244000001345,1781.338600005256,True,False
15,3,205.33104509999976,t,"(480.0, 270.0)",0,3884.704399999464,1804.1186000045855,True,False
15,3,207.67683380001108,cross,"(480.0, -270.0)",253.00380002590828,6230.49310001079,4149.9073000159115,False,True
15,4,212.2912425000104,t,"(480.0, 270.0)",265.96520000020973,10844.90180001012,4614.408699999331,False,True
16,1,216.37714100000449,circle,"(-480.0, -270.0)",0,0.01990000600926578,0.01990000600926578,False,True
16,2,216.87283820001176,cross,"(480.0, -270.0)",266.7311000113841,495.7171000132803,495.697200007271,True,False
16,2,216.89306810000562,cross,"(480.0, -270.0)",0,515.9470000071451,515.9271000011358,True,False
16,2,216.90588840001146,cross,"(480.0, -270.0)",0,528.7673000129871,528.7474000069778,True,False
16,2,216.92140689998632,cross,"(480.0, -270.0)",0,544.285799987847,544.2658999818377,True,False
16,2,216.9395133999933,cross,"(480.0, -270.0)",0,562.3922999948263,562.372399988817,True,False
16,2,216.9549304000102,cross,"(480.0, -270.0)",0,577.8093000117224,577.7894000057131,True,False
16,2,216.97242219999316,cross,"(480.0, -270.0)",0,595.3010999946855,595.2811999886762,True,False
16,2,216.98851210001158,cross,"(480.0, -270.0)",0,611.3910000131,611.3711000070907,True,False
16,2,217.00561870000092,cross,"(480.0, -270.0)",0,628.4976000024471,628.4776999964379,True,False
16,2,217.0216194000095,cross,"(480.0, -270.0)",0,644.4983000110369,644.4784000050277,True,False
16,2,217.03897900000447,cross,"(480.0, -270.0)",0,661.8579000059981,661.8379999999888,True,False
16,2,217.05508140000165,cross,"(480.0, -270.0)",0,677.9603000031784,677.9403999971692,True,False
16,2,217.07402490000823,cross,"(480.0, -270.0)",0,696.9038000097498,696.8839000037406,True,False
16,2,217.08901490000426,cross,"(480.0, -270.0)",0,711.8938000057824,711.8738999997731,True,False
16,2,217.10619719998795,cross,"(480.0, -270.0)",0,729.0760999894701,729.0561999834608,True,False
16,2,217.1223752000078,cross,"(480.0, -270.0)",0,745.2541000093333,745.2342000033241,True,False
16,2,217.13973769999575,cross,"(480.0, -270.0)",0,762.6165999972727,762.5966999912634,True,False
16,2,217.15562289999798,cross,"(480.0, -270.0)",0,778.5017999995034,778.4818999934942,True,False
16,2,217.17266630000086,cross,"(480.0, -270.0)",0,795.5452000023797,795.5252999963704,True,False
16,2,217.18806859999313,cross,"(480.0, -270.0)",0,810.9474999946542,810.9275999886449,True,False
16,2,217.20596240001032,cross,"(480.0, -270.0)",0,828.8413000118453,828.821400005836,True,False
16,2,217.20881340000778,circle,"(-480.0, -270.0)",265.9577000013087,831.6923000093084,831.6724000032991,True,False
16,2,217.22515799998655,circle,"(-480.0, -270.0)",0,848.0368999880739,848.0169999820646,True,False
16,2,217.24086789999274,circle,"(-480.0, -270.0)",0,863.7467999942601,863.7268999882508,True,False
16,2,217.2547859000042,circle,"(-480.0, -270.0)",0,877.6648000057321,877.6448999997228,True,False
16,2,217.27489070000593,circle,"(-480.0, -270.0)",0,897.7696000074502,897.7497000014409,True,False
16,2,217.2898647999973,circle,"(-480.0, -270.0)",0,912.7436999988277,912.7237999928184,True,False
16,2,217.30587370001012,circle,"(-480.0, -270.0)",0,928.7526000116486,928.7327000056393,True,False
16,2,217.3223020999867,circle,"(-480.0, -270.0)",0,945.1809999882244,945.1610999822151,True,False
16,2,217.33935900000506,circle,"(-480.0, -270.0)",0,962.2379000065848,962.2180000005756,True,False
16,2,217.35557829999016,circle,"(-480.0, -270.0)",0,978.4571999916807,978.4372999856714,True,False
16,2,217.37248240000918,circle,"(-480.0, -270.0)",0,995.3613000106998,995.3414000046905,True,False
16,2,217.38894889998483,circle,"(-480.0, -270.0)",0,1011.8277999863494,1011.8078999803402,True,False
16,2,217.40602480000234,circle,"(-480.0, -270.0)",0,1028.903700003866,1028.8837999978568,True,False
16,2,217.42100380000193,circle,"(-480.0, -270.0)",0,1043.8827000034507,1043.8627999974415,True,False
16,2,217.44101859998773,circle,"(-480.0, -270.0)",0,1063.8974999892525,1063.8775999832433,True,False
16,2,217.4565217999916,circle,"(-480.0, -270.0)",0,1079.4006999931298,1079.3807999871206,True,False
16,2,217.47395959999994,circle,"(-480.0, -270.0)",0,1096.8385000014678,1096.8185999954585,True,False
16,2,217.49066640000092,circle,"(-480.0, -270.0)",0,1113.5453000024427,1113.5253999964334,True,False
16,2,217.5078327000083,circle,"(-480.0, -270.0)",0,1130.7116000098176,1130.6917000038084,True,False
16,2,217.52221980001195,circle,"(-480.0, -270.0)",0,1145.0987000134774,1145.078800007468,True,False
16,2,217.53908739998587,circle,"(-480.0, -270.0)",0,1161.966299987398,1161.9463999813888,True,False
16,2,217.55545789998723,circle,"(-480.0, -270.0)",0,1178.336799988756,1178.3168999827467,True,False
16,2,217.5724096999911,circle,"(-480.0, -270.0)",0,1195.2885999926366,1195.2686999866273,True,False
16,2,217.5888142999902,circle,"(-480.0, -270.0)",0,1211.6931999917142,1211.673299985705,True,False
16,2,217.60579249999137,circle,"(-480.0, -270.0)",0,1228.6713999928907,1228.6514999868814,True,False
16,2,217.60897120001027,star,"(-480.0, 270.0)",250.5243000050541,1231.8501000117976,1231.8302000057884,True,False
16,2,217.62598459998844,star,"(-480.0, 270.0)",0,1248.863499989966,1248.8435999839567,True,False
16,2,217.64112869999371,star,"(-480.0, 270.0)",0,1264.0075999952387,1263.9876999892294,True,False
16,2,217.65644940000493,star,"(-480.0, 270.0)",0,1279.3283000064548,1279.3084000004455,True,False
16,2,217.67362700001104,star,"(-480.0, 270.0)",0,1296.505900012562,1296.4860000065528,True,False
16,2,217.69009590000496,star,"(-480.0, 270.0)",0,1312.9748000064865,1312.9549000004772,True,False
16,2,217.70782829998643,star,"(-480.0, 270.0)",0,1330.7071999879554,1330.6872999819461,True,False
16,2,217.72300389999873,star,"(-480.0, 270.0)",0,1345.882800000254,1345.8628999942448,True,False
16,2,217.74004000000423,star,"(-480.0, 270.0)",0,1362.9189000057522,1362.898999999743,True,False
16,2,217.75560380000388,star,"(-480.0, 270.0)",0,1378.4827000054065,1378.4627999993972,True,False
16,2,217.77243670000462,star,"(-480.0, 270.0)",0,1395.3156000061426,1395.2957000001334,True,False
16,2,217.78892349998932,star,"(-480.0, 270.0)",0,1411.8023999908473,1411.782499984838,True,False
16,2,217.80811340000946,star,"(-480.0, 270.0)",0,1430.9923000109848,1430.9724000049755,True,False
16,2,217.82217830000445,star,"(-480.0, 270.0)",0,1445.0572000059765,1445.0372999999672,True,False
16,2,217.839046899986,star,"(-480.0, 270.0)",0,1461.9257999875117,1461.9058999815024,True,False
16,2,217.8564936000039,star,"(-480.0, 270.0)",0,1479.372500005411,1479.3525999994017,True,False
16,2,217.8734889999905,star,"(-480.0, 270.0)",0,1496.3678999920376,1496.3479999860283,True,False
16,2,217.889755399985,star,"(-480.0, 270.0)",0,1512.63429998653,1512.6143999805208,True,False
16,2,217.90692979999585,star,"(-480.0, 270.0)",0,1529.8086999973748,1529.7887999913655,True,False
16,2,217.92264850001084,star,"(-480.0, 270.0)",0,1545.5274000123609,1545.5075000063516,True,False
16,2,217.94229559999076,star,"(-480.0, 270.0)",0,1565.1744999922812,1565.154599986272,True,False
16,2,217.9559050000098,star,"(-480.0, 270.0)",0,1578.7839000113308,1578.7640000053216,True,False
16,2,217.97237360000145,star,"(-480.0, 270.0)",0,1595.252500002971,1595.2325999969617,True,False
16,2,217.98870729998453,star,"(-480.0, 270.0)",0,1611.58619998605,1611.5662999800406,True,False
16,2,218.00572059999104,star,"(-480.0, 270.0)",0,1628.5994999925606,1628.5795999865513,True,False
16,2,218.0091865999857,circle,"(-480.0, -270.0)",266.8318999931216,1632.0654999872204,1632.0455999812111,True,False
16,2,218.02625990001252,circle,"(-480.0, -270.0)",0,1649.1388000140432,1649.118900008034,True,False
16,2,218.03989469999215,circle,"(-480.0, -270.0)",0,1662.7735999936704,1662.753699987661,True,False
16,2,218.05609790000017,circle,"(-480.0, -270.0)",0,1678.976800001692,1678.9568999956828,True,False
16,2,218.0747318000067,circle,"(-480.0, -270.0)",0,1697.6107000082266,1697.5908000022173,True,False
16,2,218.08981489998405,circle,"(-480.0, -270.0)",0,1712.6937999855727,1712.6738999795634,True,False
16,2,218.10650349999196,circle,"(-480.0, -270.0)",0,1729.382399993483,1729.3624999874737,True,False
16,2,218.12320309999632,circle,"(-480.0, -270.0)",0,1746.0819999978412,1746.062099991832,True,False
16,2,218.13902060000692,circle,"(-480.0, -270.0)",0,1761.8995000084396,1761.8796000024304,True,False
16,2,218.15590569999767,circle,"(-480.0, -270.0)",0,1778.7845999991987,1778.7646999931894,True,False
16,2,218.17251219999162,circle,"(-480.0, -270.0)",0,1795.3910999931395,1795.3711999871302,True,False
16,2,218.6718118999852,cross,"(480.0, -270.0)",265.91089999419637,2294.6907999867108,2294.6708999807015,False,True
16,3,218.93881039999542,cross,"(480.0, -270.0)",263.35480000125244,2561.6892999969423,266.9985000102315,True,False
16,3,218.95866709999973,cross,"(480.0, -270.0)",0,2581.5460000012536,286.8552000145428,True,False
16,3,218.9731366999913,cross,"(480.0, -270.0)",0,2596.0155999928247,301.32480000611395,True,False
16,3,218.98958970000967,cross,"(480.0, -270.0)",0,2612.468600011198,317.7778000244871,True,False
16,3,219.00724479998462,cross,"(480.0, -270.0)",0,2630.123699986143,335.43289999943227,True,False
16,3,219.02388540000538,cross,"(480.0, -270.0)",0,2646.7643000069074,352.07350002019666,True,False
16,3,219.04080859999522,cross,"(480.0, -270.0)",0,2663.6874999967404,368.9967000100296,True,False
16,3,219.05706059999648,cross,"(480.0, -270.0)",0,2679.9394999979995,385.24870001128875,True,False
16,3,219.072159000003,cross,"(480.0, -270.0)",0,2695.037900004536,400.34710001782514,True,False
16,3,219.08881280000787,cross,"(480.0, -270.0)",0,2711.6917000093963,417.0009000226855,True,False
16,3,219.1054368999903,cross,"(480.0, -270.0)",0,2728.315799991833,433.6250000051223,True,False
16,3,219.12251580000157,cross,"(480.0, -270.0)",0,2745.3947000030894,450.7039000163786,True,False
16,3,219.13849789998494,cross,"(480.0, -270.0)",0,2761.376799986465,466.68599999975413,True,False
16,3,219.1579717999848,cross,"(480.0, -270.0)",0,2780.850699986331,486.1598999996204,True,False
16,3,219.17297630000394,cross,"(480.0, -270.0)",0,2795.8552000054624,501.1644000187516,True,False
16,3,219.19033579999814,cross,"(480.0, -270.0)",0,2813.214699999662,518.5239000129513,True,False
16,3,219.20680909999646,cross,"(480.0, -270.0)",0,2829.6879999979865,534.9972000112757,True,False
16,3,219.22312549999333,cross,"(480.0, -270.0)",0,2846.004399994854,551.3136000081431,True,False
16,3,219.239511199994,cross,"(480.0, -270.0)",0,2862.3900999955367,567.699300008826,True,False
16,3,219.2566375999886,cross,"(480.0, -270.0)",0,2879.5164999901317,584.8257000034209,True,False
16,3,219.2727004000044,cross,"(480.0, -270.0)",0,2895.5793000059202,600.8885000192095,True,False
16,3,219.2898479999858,cross,"(480.0, -270.0)",0,2912.7268999873195,618.0361000006087,True,False
16,3,219.30510339999455,cross,"(480.0, -270.0)",0,2927.9822999960743,633.2915000093635,True,False
16,3,219.32228469999973,cross,"(480.0, -270.0)",0,2945.1636000012513,650.4728000145406,True,False
16,3,219.3388893000083,cross,"(480.0, -270.0)",0,2961.7682000098284,667.0774000231177,True,False
16,3,219.35549170000013,cross,"(480.0, -270.0)",0,2978.3706000016537,683.6798000149429,True,False
16,3,219.37182969998685,cross,"(480.0, -270.0)",0,2994.708599988371,700.0178000016604,True,False
16,3,219.38866649998818,cross,"(480.0, -270.0)",0,3011.5453999897,716.8546000029892,True,False
16,3,219.40674450001097,cross,"(480.0, -270.0)",0,3029.623400012497,734.9326000257861,True,False
16,3,219.42295239999657,cross,"(480.0, -270.0)",0,3045.831299998099,751.1405000113882,True,False
16,3,219.43974979998893,cross,"(480.0, -270.0)",0,3062.628699990455,767.9379000037443,True,False
16,3,219.45715410000412,cross,"(480.0, -270.0)",0,3080.033000005642,785.3422000189312,True,False
16,3,219.4726898999943,cross,"(480.0, -270.0)",0,3095.5687999958172,800.8780000091065,True,False
16,3,219.48974990000715,cross,"(480.0, -270.0)",0,3112.628800008679,817.938000021968,True,False
16,3,219.50509289998445,cross,"(480.0, -270.0)",0,3127.9717999859713,833.2809999992605,True,False
16,3,219.52229819999775,cross,"(480.0, -270.0)",0,3145.177099999273,850.4863000125624,True,False
16,3,219.5383307999873,cross,"(480.0, -270.0)",0,3161.209699988831,866.5189000021201,True,False
16,3,219.55548519999138,cross,"(480.0, -270.0)",0,3178.364099992905,883.673300006194,True,False
16,3,219.57165739999618,cross,"(480.0, -270.0)",0,3194.536299997708,899.8455000109971,True,False
16,3,219.58843889998388,cross,"(480.0, -270.0)",0,3211.317799985409,916.626999998698,True,False
16,3,219.60653580000508,cross,"(480.0, -270.0)",0,3229.4147000066005,934.7239000198897,True,False
16,3,219.6230649999925,cross,"(480.0, -270.0)",0,3245.9438999940176,951.2531000073068,True,False
16,3,219.63942749999114,cross,"(480.0, -270.0)",0,3262.306399992667,967.6156000059564,True,False
16,3,219.65566920000128,cross,"(480.0, -270.0)",0,3278.5481000028085,983.8573000160977,True,False
16,3,219.67294680001214,cross,"(480.0, -270.0)",0,3295.8257000136655,1001.1349000269547,True,False
16,3,219.68987140001263,cross,"(480.0, -270.0)",0,3312.7503000141587,1018.0595000274479,True,False
16,3,219.70626199999242,cross,"(480.0, -270.0)",0,3329.140899993945,1034.4501000072341,True,False
16,3,219.72285530000227,cross,"(480.0, -270.0)",0,3345.7342000037897,1051.043400017079,True,False
16,3,219.7383247000107,cross,"(480.0, -270.0)",0,3361.2036000122316,1066.5128000255208,True,False
16,3,219.75537699999404,cross,"(480.0, -270.0)",0,3378.2558999955654,1083.5651000088546,True,False
16,3,219.77196529999492,cross,"(480.0, -270.0)",0,3394.8441999964416,1100.1534000097308,True,False
16,3,219.7889118999883,cross,"(480.0, -270.0)",0,3411.7907999898307,1117.10000000312,True,False
16,3,219.8054065000033,cross,"(480.0, -270.0)",0,3428.2854000048246,1133.5946000181139,True,False
16,3,219.8226990000112,cross,"(480.0, -270.0)",0,3445.5779000127222,1150.8871000260115,True,False
16,3,219.83972049999284,cross,"(480.0, -270.0)",0,3462.5993999943603,1167.9086000076495,True,False
16,3,219.8563989000104,cross,"(480.0, -270.0)",0,3479.277800011914,1184.5870000252035,True,False
16,3,219.87257629999658,cross,"(480.0, -270.0)",0,3495.455199998105,1200.7644000113942,True,False
16,3,219.889895100001,cross,"(480.0, -270.0)",0,3512.774000002537,1218.0832000158262,True,False
16,3,219.9062716999906,cross,"(480.0, -270.0)",0,3529.1505999921355,1234.4598000054248,True,False
16,3,219.92293770000106,cross,"(480.0, -270.0)",0,3545.8166000025813,1251.1258000158705,True,False
16,3,219.93912930000806,cross,"(480.0, -270.0)",0,3562.0082000095863,1267.3174000228755,True,False
16,3,219.95527899998706,cross,"(480.0, -270.0)",0,3578.1578999885824,1283.4671000018716,True,False
16,3,219.9716788000078,cross,"(480.0, -270.0)",0,3594.557700009318,1299.8669000226073,True,False
16,3,219.98866689999704,cross,"(480.0, -270.0)",0,3611.5457999985665,1316.8550000118557,True,False
16,3,220.00510139999096,cross,"(480.0, -270.0)",0,3627.980299992487,1333.289500005776,True,False
16,3,220.02248580000014,cross,"(480.0, -270.0)",0,3645.3647000016645,1350.6739000149537,True,False
16,3,220.03974569999264,cross,"(480.0, -270.0)",0,3662.6245999941602,1367.9338000074495,True,False
16,3,220.0568540999957,cross,"(480.0, -270.0)",0,3679.7329999972135,1385.0422000105027,True,False
16,3,220.07265129999723,cross,"(480.0, -270.0)",0,3695.530199998757,1400.839400012046,True,False
16,3,220.08960969999316,cross,"(480.0, -270.0)",0,3712.4885999946855,1417.7978000079747,True,False
16,3,220.1064730999933,cross,"(480.0, -270.0)",0,3729.351999994833,1434.6612000081223,True,False
16,3,220.12351760000456,cross,"(480.0, -270.0)",0,3746.3965000060853,1451.7057000193745,True,False
16,3,220.13914210000075,cross,"(480.0, -270.0)",0,3762.021000002278,1467.3302000155672,True,False
16,3,220.1568585000059,cross,"(480.0, -270.0)",0,3779.737400007434,1485.0466000207234,True,False
16,3,220.17239049999625,cross,"(480.0, -270.0)",0,3795.2693999977782,1500.5786000110675,True,False
16,3,220.18849629999022,cross,"(480.0, -270.0)",0,3811.375199991744,1516.6844000050332,True,False
16,3,220.20496030000504,cross,"(480.0, -270.0)",0,3827.839200006565,1533.1484000198543,True,False
16,3,220.22160359998816,cross,"(480.0, -270.0)",0,3844.482499989681,1549.7917000029702,True,False
16,3,220.238121900009,cross,"(480.0, -270.0)",0,3861.0008000105154,1566.3100000238046,True,False
16,3,220.25548839999828,cross,"(480.0, -270.0)",0,3878.367299999809,1583.6765000130981,True,False
16,3,220.2715656000073,cross,"(480.0, -270.0)",0,3894.444500008831,1599.75370002212,True,False
16,3,220.2899851000111,cross,"(480.0, -270.0)",0,3912.8640000126325,1618.1732000259217,True,False
16,3,220.3059971999901,cross,"(480.0, -270.0)",0,3928.876099991612,1634.1853000049014,True,False
16,3,220.32319359999383,cross,"(480.0, -270.0)",0,3946.0724999953527,1651.381700008642,True,False
16,3,220.33928509999532,cross,"(480.0, -270.0)",0,3962.1639999968465,1667.4732000101358,True,False
16,3,220.3550380000088,cross,"(480.0, -270.0)",0,3977.916900010314,1683.226100023603,True,False
16,3,220.37232379999477,cross,"(480.0, -270.0)",0,3995.202699996298,1700.5119000095874,True,False
16,3,220.3883608999895,cross,"(480.0, -270.0)",0,4011.239799991017,1716.5490000043064,True,False
16,3,220.40500299999258,cross,"(480.0, -270.0)",0,4027.8818999940995,1733.1911000073887,True,False
16,3,220.421729099995,cross,"(480.0, -270.0)",0,4044.607999996515,1749.9172000098042,True,False
16,3,220.43813689998933,cross,"(480.0, -270.0)",0,4061.015799990855,1766.3250000041444,True,False
16,3,220.45541070000036,cross,"(480.0, -270.0)",0,4078.289600001881,1783.5988000151701,True,False
16,3,222.38778230000753,circle,"(-480.0, -270.0)",266.77489999565296,6010.661200009054,3715.970400022343,False,True
16,4,225.6205700999999,star,"(-480.0, 270.0)",251.16720001096837,9243.44900000142,3232.7877999923658,False,True
17,1,229.75437949999468,circle,"(-480.0, -270.0)",0,0.022199994418770075,0.022199994418770075,False,True
17,2,230.30122349999147,star,"(-480.0, 270.0)",251.28890000632964,546.8661999912001,546.8439999967813,True,False
17,2,230.31967090000398,star,"(-480.0, 270.0)",0,565.3136000037193,565.2914000093006,True,False
17,2,230.33483770000748,star,"(-480.0, 270.0)",0,580.4804000072181,580.4582000127994,True,False
17,2,230.35164549999172,star,"(-480.0, 270.0)",0,597.2881999914534,597.2659999970347,True,False
17,2,230.3684513999906,star,"(-480.0, 270.0)",0,614.094099990325,614.0718999959063,True,False
17,2,230.385317200009,star,"(-480.0, 270.0)",0,630.9599000087474,630.9377000143286,True,False
17,2,230.40232630001265,star,"(-480.0, 270.0)",0,647.969000012381,647.9468000179622,True,False
17,2,230.41851529999985,star,"(-480.0, 270.0)",0,664.1579999995884,664.1358000051696,True,False
17,2,230.43448669998907,star,"(-480.0, 270.0)",0,680.1293999888003,680.1071999943815,True,False
17,2,230.45026809998672,star,"(-480.0, 270.0)",0,695.91079998645,695.8885999920312,True,False
17,2,230.46603660000255,star,"(-480.0, 270.0)",0,711.6793000022881,711.6571000078693,True,False
17,2,230.4845648999908,star,"(-480.0, 270.0)",0,730.2075999905355,730.1853999961168,True,False
17,2,230.50014059999376,star,"(-480.0, 270.0)",0,745.7832999934908,745.761099999072,True,False
17,2,230.51755309998407,star,"(-480.0, 270.0)",0,763.195799983805,763.1735999893863,True,False
17,2,230.53355719998945,star,"(-480.0, 270.0)",0,779.1998999891803,779.1776999947615,True,False
17,2,230.55066469998565,star,"(-480.0, 270.0)",0,796.3073999853805,796.2851999909617,True,False
17,2,230.5681784999906,star,"(-480.0, 270.0)",0,813.8211999903433,813.7989999959245,True,False
17,2,230.5849836000125,star,"(-480.0, 270.0)",0,830.6263000122271,830.6041000178084,True,False
17,2,230.6011118000024,star,"(-480.0, 270.0)",0,846.7545000021346,846.7323000077158,True,False
17,2,230.61837620000006,star,"(-480.0, 270.0)",0,864.0188999997918,863.996700005373,True,False
17,2,230.6347531999927,star,"(-480.0, 270.0)",0,880.3958999924362,880.3736999980174,True,False
17,2,230.6505729999917,star,"(-480.0, 270.0)",0,896.2156999914441,896.1934999970254,True,False
17,2,230.66685989999678,star,"(-480.0, 270.0)",0,912.5025999965146,912.4804000020958,True,False
17,2,230.6890766999859,star,"(-480.0, 270.0)",0,934.7193999856245,934.6971999912057,True,False
17,2,230.700731799996,star,"(-480.0, 270.0)",0,946.3744999957271,946.3523000013083,True,False
17,2,230.7176979999931,star,"(-480.0, 270.0)",0,963.3406999928411,963.3184999984223,True,False
17,2,230.73356039999635,star,"(-480.0, 270.0)",0,979.2030999960843,979.1809000016656,True,False
17,2,230.7506294999912,star,"(-480.0, 270.0)",0,996.2721999909263,996.2499999965075,True,False
17,2,230.76736719999462,star,"(-480.0, 270.0)",0,1013.0098999943584,1012.9876999999397,True,False
17,2,230.7843417999975,star,"(-480.0, 270.0)",0,1029.9844999972265,1029.9623000028078,True,False
17,2,230.80108229999314,star,"(-480.0, 270.0)",0,1046.7249999928754,1046.7027999984566,True,False
17,2,230.81766800000332,star,"(-480.0, 270.0)",0,1063.3107000030577,1063.288500008639,True,False
17,2,230.83404889999656,star,"(-480.0, 270.0)",0,1079.6915999962948,1079.669400001876,True,False
17,2,230.85094720000052,star,"(-480.0, 270.0)",0,1096.5899000002537,1096.567700005835,True,False
17,2,230.867354099988,star,"(-480.0, 270.0)",0,1112.9967999877408,1112.974599993322,True,False
17,2,230.8844240999897,star,"(-480.0, 270.0)",0,1130.0667999894358,1130.044599995017,True,False
17,2,230.89978189999238,star,"(-480.0, 270.0)",0,1145.4245999921113,1145.4023999976926,True,False
17,2,230.91723479999928,star,"(-480.0, 270.0)",0,1162.8774999990128,1162.855300004594,True,False
17,2,230.93332710000686,star,"(-480.0, 270.0)",0,1178.9698000065982,1178.9476000121795,True,False
17,2,230.95070499999565,star,"(-480.0, 270.0)",0,1196.3476999953855,1196.3255000009667,True,False
17,2,230.9666758000094,star,"(-480.0, 270.0)",0,1212.3185000091325,1212.2963000147138,True,False
17,2,230.9844438,star,"(-480.0, 270.0)",0,1230.086499999743,1230.0643000053242,True,False
17,2,231.00131029999466,star,"(-480.0, 270.0)",0,1246.9529999943916,1246.9307999999728,True,False
17,2,231.01825749999261,star,"(-480.0, 270.0)",0,1263.9001999923494,1263.8779999979306,True,False
17,2,231.03472930000862,star,"(-480.0, 270.0)",0,1280.3720000083558,1280.349800013937,True,False
17,2,231.0514906999888,star,"(-480.0, 270.0)",0,1297.1333999885246,1297.1111999941058,True,False
17,2,231.0680582000059,star,"(-480.0, 270.0)",0,1313.7009000056423,1313.6787000112236,True,False
17,2,231.08602620000602,star,"(-480.0, 270.0)",0,1331.6689000057522,1331.6467000113335,True,False
17,2,231.10035049999715,star,"(-480.0, 270.0)",0,1345.993199996883,1345.9710000024643,True,False
17,2,231.1172382000077,star,"(-480.0, 270.0)",0,1362.8809000074398,1362.858700013021,True,False
17,2,231.1333721000119,star,"(-480.0, 270.0)",0,1379.014800011646,1378.9926000172272,True,False
17,2,231.15071889999672,star,"(-480.0, 270.0)",0,1396.3615999964532,1396.3394000020344,True,False
17,2,231.16657780000241,star,"(-480.0, 270.0)",0,1412.2205000021495,1412.1983000077307,True,False
17,2,231.18408959999215,star,"(-480.0, 270.0)",0,1429.7322999918833,1429.7100999974646,True,False
17,2,231.20089440001175,star,"(-480.0, 270.0)",0,1446.5371000114828,1446.514900017064,True,False
17,2,231.2181830999907,star,"(-480.0, 270.0)",0,1463.8257999904454,1463.8035999960266,True,False
17,2,231.23434210001142,star,"(-480.0, 270.0)",0,1479.9848000111524,1479.9626000167336,True,False
17,2,231.25187740000547,star,"(-480.0, 270.0)",0,1497.5201000052039,1497.497900010785,True,False
17,2,231.2681666999997,star,"(-480.0, 270.0)",0,1513.8093999994453,1513.7872000050265,True,False
17,2,231.28451420000056,star,"(-480.0, 270.0)",0,1530.1569000002928,1530.134700005874,True,False
17,2,231.30008650000673,star,"(-480.0, 270.0)",0,1545.7292000064626,1545.7070000120439,True,False
17,2,231.31761019999976,star,"(-480.0, 270.0)",0,1563.2528999994975,1563.2307000050787,True,False
17,2,231.34021619998384,star,"(-480.0, 270.0)",0,1585.8588999835774,1585.8366999891587,True,False
17,2,231.35264440000174,star,"(-480.0, 270.0)",0,1598.2871000014711,1598.2649000070523,True,False
17,2,231.36711150000338,star,"(-480.0, 270.0)",0,1612.7542000031099,1612.732000008691,True,False
17,2,231.3846799999883,star,"(-480.0, 270.0)",0,1630.322699988028,1630.3004999936093,True,False
17,2,231.39984140000888,star,"(-480.0, 270.0)",0,1645.4841000086162,1645.4619000141975,True,False
17,2,231.41831599999568,star,"(-480.0, 270.0)",0,1663.958699995419,1663.9365000010002,True,False
17,2,231.4345931999851,star,"(-480.0, 270.0)",0,1680.2358999848366,1680.2136999904178,True,False
17,2,231.45132029999513,star,"(-480.0, 270.0)",0,1696.9629999948665,1696.9408000004478,True,False
17,2,231.4675753999909,star,"(-480.0, 270.0)",0,1713.2180999906268,1713.195899996208,True,False
17,2,231.48549439999624,star,"(-480.0, 270.0)",0,1731.1370999959763,1731.1149000015575,True,False
17,2,231.49989360000473,star,"(-480.0, 270.0)",0,1745.53630000446,1745.5141000100411,True,False
17,2,231.51696929999162,star,"(-480.0, 270.0)",0,1762.6119999913499,1762.589799996931,True,False
17,2,231.53487229999155,star,"(-480.0, 270.0)",0,1780.5149999912828,1780.492799996864,True,False
18,1,237.04977199999848,circle,"(-480.0, -270.0)",0,0.017000013031065464,0.017000013031065464,False,True
18,2,237.90002390000154,star,"(-480.0, 270.0)",251.06609999784268,850.2689000160899,850.2519000030588,True,False
18,2,237.9199559999979,star,"(-480.0, 270.0)",0,870.2010000124574,870.1839999994263,True,False
18,2,237.93199630000163,star,"(-480.0, 270.0)",0,882.241300016176,882.2243000031449,True,False
18,2,237.9497352000035,star,"(-480.0, 270.0)",0,899.9802000180352,899.9632000050042,True,False
18,2,237.9656287000107,star,"(-480.0, 270.0)",0,915.8737000252586,915.8567000122275,True,False
18,2,237.98216300000786,star,"(-480.0, 270.0)",0,932.4080000224058,932.3910000093747,True,False
18,2,237.9976156000048,star,"(-480.0, 270.0)",0,947.8606000193395,947.8436000063084,True,False
18,2,238.01522780000232,star,"(-480.0, 270.0)",0,965.4728000168689,965.4558000038378,True,False
18,2,238.0311129000038,star,"(-480.0, 270.0)",0,981.3579000183381,981.340900005307,True,False
18,2,238.04851079999935,star,"(-480.0, 270.0)",0,998.7558000138961,998.738800000865,True,False
18,2,238.0658093999955,star,"(-480.0, 270.0)",0,1016.0544000100344,1016.0373999970034,True,False
18,2,238.0825205000001,star,"(-480.0, 270.0)",0,1032.7655000146478,1032.7485000016168,True,False
18,2,238.09932649999973,star,"(-480.0, 270.0)",0,1049.571500014281,1049.5545000012498,True,False
18,2,238.1157600999868,star,"(-480.0, 270.0)",0,1066.0051000013482,1065.9880999883171,True,False
18,2,238.1319172999938,star,"(-480.0, 270.0)",0,1082.1623000083491,1082.145299995318,True,False
18,2,238.14905979999457,star,"(-480.0, 270.0)",0,1099.3048000091221,1099.287799996091,True,False
18,2,238.16390769998543,star,"(-480.0, 270.0)",0,1114.152699999977,1114.1356999869458,True,False
18,2,238.1826977999881,star,"(-480.0, 270.0)",0,1132.9428000026383,1132.9257999896072,True,False
18,2,238.1976433999953,star,"(-480.0, 270.0)",0,1147.8884000098333,1147.8713999968022,True,False
18,2,238.21507800000836,star,"(-480.0, 270.0)",0,1165.3230000229087,1165.3060000098776,True,False
18,2,238.2311037000036,star,"(-480.0, 270.0)",0,1181.348700018134,1181.331700005103,True,False
18,2,238.24844490000396,star,"(-480.0, 270.0)",0,1198.6899000185076,1198.6729000054765,True,False
18,2,238.2644486000063,star,"(-480.0, 270.0)",0,1214.693600020837,1214.676600007806,True,False
18,2,238.28225829999428,star,"(-480.0, 270.0)",0,1232.5033000088297,1232.4862999957986,True,False
18,2,238.29036529999576,circle,"(-480.0, -270.0)",257.34720000764355,1240.610300010303,1240.593299997272,True,False
18,2,238.3027379999985,circle,"(-480.0, -270.0)",0,1252.983000013046,1252.966000000015,True,False
18,2,238.31591820000904,circle,"(-480.0, -270.0)",0,1266.163200023584,1266.146200010553,True,False
18,2,238.33223030000227,circle,"(-480.0, -270.0)",0,1282.475300016813,1282.458300003782,True,False
18,2,238.34983620001003,circle,"(-480.0, -270.0)",0,1300.0812000245787,1300.0642000115477,True,False
18,2,238.36414650001097,circle,"(-480.0, -270.0)",0,1314.391500025522,1314.374500012491,True,False
18,2,238.38224360000459,circle,"(-480.0, -270.0)",0,1332.4886000191327,1332.4716000061017,True,False
18,2,238.39759109998704,circle,"(-480.0, -270.0)",0,1347.8361000015866,1347.8190999885555,True,False
18,2,238.4155796999985,circle,"(-480.0, -270.0)",0,1365.824700013036,1365.8077000000048,True,False
18,2,238.43130359999486,circle,"(-480.0, -270.0)",0,1381.5486000094097,1381.5315999963786,True,False
18,2,238.4484184999892,circle,"(-480.0, -270.0)",0,1398.6635000037495,1398.6464999907184,True,False
18,2,238.46412640000926,circle,"(-480.0, -270.0)",0,1414.3714000238106,1414.3544000107795,True,False
18,2,238.48165149998385,circle,"(-480.0, -270.0)",0,1431.8964999984019,1431.8794999853708,True,False
18,2,238.49849880000693,circle,"(-480.0, -270.0)",0,1448.7438000214752,1448.7268000084441,True,False
18,2,238.5157135000045,circle,"(-480.0, -270.0)",0,1465.9585000190418,1465.9415000060108,True,False
18,2,238.53195199999027,circle,"(-480.0, -270.0)",0,1482.1970000048168,1482.1799999917857,True,False
18,2,238.54876840001089,circle,"(-480.0, -270.0)",0,1499.013400025433,1498.9964000124019,True,False
18,2,238.5654174000083,circle,"(-480.0, -270.0)",0,1515.6624000228476,1515.6454000098165,True,False
18,2,238.58228939998662,circle,"(-480.0, -270.0)",0,1532.5344000011683,1532.5173999881372,True,False
18,2,238.5974048000062,circle,"(-480.0, -270.0)",0,1547.6498000207357,1547.6328000077046,True,False
18,2,238.61506199999712,circle,"(-480.0, -270.0)",0,1565.3070000116713,1565.2899999986403,True,False
18,2,238.63145889999578,circle,"(-480.0, -270.0)",0,1581.703900010325,1581.686899997294,True,False
18,2,238.64842879999196,circle,"(-480.0, -270.0)",0,1598.6738000065088,1598.6567999934778,True,False
18,2,238.665107000008,circle,"(-480.0, -270.0)",0,1615.3520000225399,1615.3350000095088,True,False
18,2,238.68255749999662,circle,"(-480.0, -270.0)",0,1632.8025000111666,1632.7854999981355,True,False
18,2,238.69842709999648,circle,"(-480.0, -270.0)",0,1648.6721000110265,1648.6550999979954,True,False
18,2,238.71551559999352,circle,"(-480.0, -270.0)",0,1665.7606000080705,1665.7435999950394,True,False
18,2,238.7307116999873,circle,"(-480.0, -270.0)",0,1680.9567000018433,1680.9396999888122,True,False
18,2,238.74899749999167,circle,"(-480.0, -270.0)",0,1699.2425000062212,1699.2254999931902,True,False
18,2,238.76537670000107,circle,"(-480.0, -270.0)",0,1715.6217000156175,1715.6047000025865,True,False
18,2,238.7823081999959,circle,"(-480.0, -270.0)",0,1732.553200010443,1732.536199997412,True,False
18,2,238.79865419998532,circle,"(-480.0, -270.0)",0,1748.8991999998689,1748.8821999868378,True,False
18,2,238.81561799999326,circle,"(-480.0, -270.0)",0,1765.863000007812,1765.8459999947809,True,False
18,2,238.83183869998902,circle,"(-480.0, -270.0)",0,1782.083700003568,1782.066699990537,True,False
18,2,238.8488992000057,circle,"(-480.0, -270.0)",0,1799.144200020237,1799.1272000072058,True,False
18,2,241.39801430000807,cross,"(480.0, -270.0)",250.17410001601093,4348.259300022619,4348.242300009588,False,True
18,3,242.73052069998812,cross,"(480.0, -270.0)",250.84749999223277,5680.765700002667,1332.5063999800477,True,False
18,3,242.7492207000032,cross,"(480.0, -270.0)",0,5699.465700017754,1351.2063999951351,True,False
18,3,242.7636812000128,cross,"(480.0, -270.0)",0,5713.926200027345,1365.666900004726,True,False
18,3,242.77944700000808,cross,"(480.0, -270.0)",0,5729.692000022624,1381.4327000000048,True,False
18,3,242.7974794000038,cross,"(480.0, -270.0)",0,5747.724400018342,1399.465099995723,True,False
18,3,242.81413109999266,cross,"(480.0, -270.0)",0,5764.376100007212,1416.116799984593,True,False
18,3,242.83083389999229,cross,"(480.0, -270.0)",0,5781.078900006833,1432.8195999842137,True,False
18,3,242.84742509998614,cross,"(480.0, -270.0)",0,5797.670100000687,1449.410799978068,True,False
18,3,242.8641241999867,cross,"(480.0, -270.0)",0,5814.369200001238,1466.109899978619,True,False
18,3,242.88099060000968,cross,"(480.0, -270.0)",0,5831.235600024229,1482.97630000161,True,False
18,3,242.89607329998398,cross,"(480.0, -270.0)",0,5846.318299998529,1498.0589999759104,True,False
18,3,242.9138125999889,cross,"(480.0, -270.0)",0,5864.057600003434,1515.7982999808155,True,False
18,3,242.92949429998407,cross,"(480.0, -270.0)",0,5879.739299998619,1531.4799999759998,True,False
18,3,242.94691940001212,cross,"(480.0, -270.0)",0,5897.164400026668,1548.905100004049,True,False
18,3,242.96891540000797,cross,"(480.0, -270.0)",0,5919.16040002252,1570.901099999901,True,False
18,3,242.98117179999826,cross,"(480.0, -270.0)",0,5931.416800012812,1583.1574999901932,True,False
18,3,242.99724880000576,cross,"(480.0, -270.0)",0,5947.493800020311,1599.2344999976922,True,False
18,3,243.01397520001046,cross,"(480.0, -270.0)",0,5964.220200025011,1615.960900002392,True,False
18,3,243.03061139999772,cross,"(480.0, -270.0)",0,5980.8564000122715,1632.5970999896526,True,False
18,3,243.04711360001238,cross,"(480.0, -270.0)",0,5997.358600026928,1649.099300004309,True,False
18,3,243.06411259999732,cross,"(480.0, -270.0)",0,6014.357600011863,1666.098299989244,True,False
18,3,243.0805316999904,cross,"(480.0, -270.0)",0,6030.776700004935,1682.5173999823164,True,False
18,3,243.0961915999942,cross,"(480.0, -270.0)",0,6046.436600008747,1698.1772999861278,True,False
18,3,243.11375250000856,cross,"(480.0, -270.0)",0,6063.997500023106,1715.7382000004873,True,False
18,3,243.12959709999268,cross,"(480.0, -270.0)",0,6079.842100007227,1731.5827999846078,True,False
18,3,243.1470430000045,cross,"(480.0, -270.0)",0,6097.288000019034,1749.0286999964155,True,False
18,3,243.1627324000001,cross,"(480.0, -270.0)",0,6112.977400014643,1764.7180999920238,True,False
18,3,243.18079320000834,cross,"(480.0, -270.0)",0,6131.038200022886,1782.7789000002667,True,False
18,3,243.91342920000898,circle,"(-480.0, -270.0)",265.1445000083186,6863.6742000235245,2515.4149000009056,False,True
19,1,259.9104207000055,circle,"(-480.0, -270.0)",0,0.022299995180219412,0.022299995180219412,False,True
19,2,260.69413829999394,circle,"(-480.0, -270.0)",267.6884999964386,783.7398999836296,783.7175999884494,True,False
19,2,260.7130233999924,circle,"(-480.0, -270.0)",0,802.624999982072,802.6026999868918,True,False
19,2,260.725927099993,circle,"(-480.0, -270.0)",0,815.5286999826785,815.5063999874983,True,False
19,2,260.74150040000677,circle,"(-480.0, -270.0)",0,831.1019999964628,831.0797000012826,True,False
19,2,260.75790210001287,circle,"(-480.0, -270.0)",0,847.5037000025623,847.481400007382,True,False
19,2,260.7757364999852,circle,"(-480.0, -270.0)",0,865.3380999749061,865.3157999797259,True,False
19,2,260.7916404999851,circle,"(-480.0, -270.0)",0,881.2420999747701,881.2197999795899,True,False
19,2,260.80910769998445,circle,"(-480.0, -270.0)",0,898.7092999741435,898.6869999789633,True,False
19,2,260.82497250000597,circle,"(-480.0, -270.0)",0,914.5740999956615,914.5518000004813,True,False
19,2,260.8422306999855,circle,"(-480.0, -270.0)",0,931.8322999752127,931.8099999800324,True,False
19,2,260.85886229999596,circle,"(-480.0, -270.0)",0,948.4638999856543,948.4415999904741,True,False
19,2,260.87602239998523,circle,"(-480.0, -270.0)",0,965.6239999749232,965.601699979743,True,False
19,2,260.8914178000123,circle,"(-480.0, -270.0)",0,981.0194000019692,980.997100006789,True,False
19,2,260.90833750000456,circle,"(-480.0, -270.0)",0,997.9390999942552,997.916799999075,True,False
19,2,260.924663599988,circle,"(-480.0, -270.0)",0,1014.2651999776717,1014.2428999824915,True,False
19,2,260.9418469000084,circle,"(-480.0, -270.0)",0,1031.4484999980778,1031.4262000028975,True,False
19,2,260.9576909999887,circle,"(-480.0, -270.0)",0,1047.292599978391,1047.2702999832109,True,False
19,2,260.97732790000737,circle,"(-480.0, -270.0)",0,1066.9294999970589,1066.9072000018787,True,False
19,2,260.9913414999901,circle,"(-480.0, -270.0)",0,1080.943099979777,1080.9207999845967,True,False
19,2,261.00859089998994,circle,"(-480.0, -270.0)",0,1098.192499979632,1098.1701999844518,True,False
19,2,261.0250788000121,circle,"(-480.0, -270.0)",0,1114.6804000018165,1114.6581000066362,True,False
19,2,261.0418836000026,circle,"(-480.0, -270.0)",0,1131.4851999923121,1131.462899997132,True,False
19,2,261.05893699999433,circle,"(-480.0, -270.0)",0,1148.5385999840219,1148.5162999888416,True,False
19,2,261.0761394999863,circle,"(-480.0, -270.0)",0,1165.7410999760032,1165.718799980823,True,False
19,2,261.0913572999998,circle,"(-480.0, -270.0)",0,1180.9588999894913,1180.936599994311,True,False
19,2,261.1104192000057,circle,"(-480.0, -270.0)",0,1200.0207999954,1199.9985000002198,True,False
19,2,261.1248093000031,circle,"(-480.0, -270.0)",0,1214.4108999927994,1214.3885999976192,True,False
19,2,261.1437453000108,circle,"(-480.0, -270.0)",0,1233.3469000004698,1233.3246000052895,True,False
19,2,261.15832069999306,circle,"(-480.0, -270.0)",0,1247.922299982747,1247.8999999875668,True,False
19,2,261.1755243999942,circle,"(-480.0, -270.0)",0,1265.1259999838658,1265.1036999886855,True,False
19,2,261.1909760000126,circle,"(-480.0, -270.0)",0,1280.5776000022888,1280.5553000071086,True,False
19,2,261.2092306999839,circle,"(-480.0, -270.0)",0,1298.8322999735828,1298.8099999784026,True,False
19,2,261.2246720000112,circle,"(-480.0, -270.0)",0,1314.273600000888,1314.251300005708,True,False
19,2,261.2416656999849,circle,"(-480.0, -270.0)",0,1331.26729997457,1331.2449999793898,True,False
19,2,261.2588107000047,circle,"(-480.0, -270.0)",0,1348.4122999943793,1348.389999999199,True,False
19,2,261.2747554999951,circle,"(-480.0, -270.0)",0,1364.3570999847725,1364.3347999895923,True,False
19,2,261.29183589998866,circle,"(-480.0, -270.0)",0,1381.4374999783468,1381.4151999831665,True,False
19,2,261.3083420000039,circle,"(-480.0, -270.0)",0,1397.9435999935959,1397.9212999984156,True,False
19,2,261.32465639998554,circle,"(-480.0, -270.0)",0,1414.2579999752343,1414.235699980054,True,False
19,2,261.34158119998756,circle,"(-480.0, -270.0)",0,1431.1827999772504,1431.1604999820702,True,False
19,2,261.35963459999766,circle,"(-480.0, -270.0)",0,1449.2361999873538,1449.2138999921735,True,False
19,2,261.376580799988,circle,"(-480.0, -270.0)",0,1466.182399977697,1466.1600999825168,True,False
19,2,261.3909435000096,circle,"(-480.0, -270.0)",0,1480.54509999929,1480.5228000041097,True,False
19,2,261.4083215999999,circle,"(-480.0, -270.0)",0,1497.9231999896,1497.90089999442,True,False
19,2,261.4254723000049,circle,"(-480.0, -270.0)",0,1515.0738999946043,1515.051599999424,True,False
19,2,261.44151350000175,circle,"(-480.0, -270.0)",0,1531.115099991439,1531.0927999962587,True,False
19,2,261.45798889998696,circle,"(-480.0, -270.0)",0,1547.5904999766499,1547.5681999814697,True,False
19,2,261.47466129998793,circle,"(-480.0, -270.0)",0,1564.2628999776207,1564.2405999824405,True,False
19,2,261.4908448999922,circle,"(-480.0, -270.0)",0,1580.4464999819174,1580.4241999867372,True,False
19,2,261.50889150000876,circle,"(-480.0, -270.0)",0,1598.49309999845,1598.4708000032697,True,False
19,2,261.5243450999842,circle,"(-480.0, -270.0)",0,1613.9466999738943,1613.924399978714,True,False
19,2,261.5417189,circle,"(-480.0, -270.0)",0,1631.3204999896698,1631.2981999944896,True,False
19,2,261.55912119999994,circle,"(-480.0, -270.0)",0,1648.7227999896277,1648.7004999944475,True,False
19,2,261.5757656999922,circle,"(-480.0, -270.0)",0,1665.367299981881,1665.3449999867007,True,False
19,2,261.5909926999884,circle,"(-480.0, -270.0)",0,1680.594299978111,1680.5719999829307,True,False
19,2,261.60867190000135,circle,"(-480.0, -270.0)",0,1698.2734999910463,1698.251199995866,True,False
19,2,261.6260270999919,circle,"(-480.0, -270.0)",0,1715.6286999816075,1715.6063999864273,True,False
19,2,261.6415943999891,circle,"(-480.0, -270.0)",0,1731.1959999788087,1731.1736999836285,True,False
19,2,261.6572700999968,circle,"(-480.0, -270.0)",0,1746.8716999865137,1746.8493999913335,True,False
19,2,261.6748035000055,circle,"(-480.0, -270.0)",0,1764.4050999952015,1764.3828000000212,True,False
19,2,261.6910138000094,circle,"(-480.0, -270.0)",0,1780.6153999990784,1780.5931000038981,True,False
19,2,262.2077627000108,t,"(480.0, 270.0)",265.7644000137225,2297.3643000004813,2297.342000005301,False,True
19,3,262.4755920000025,t,"(480.0, 270.0)",264.48230000096373,2565.193599992199,267.82929999171756,True,False
19,3,262.4946204999869,t,"(480.0, 270.0)",0,2584.222099976614,286.8577999761328,True,False
19,3,262.5082907000033,t,"(480.0, 270.0)",0,2597.8922999929637,300.52799999248236,True,False
19,3,262.5249652999919,t,"(480.0, 270.0)",0,2614.5668999815825,317.20259998110123,True,False
19,3,262.5421664000023,t,"(480.0, 270.0)",0,2631.7679999920074,334.4036999915261,True,False
19,3,262.55808749998687,t,"(480.0, 270.0)",0,2647.68909997656,350.3247999760788,True,False
19,3,262.5761225000024,t,"(480.0, 270.0)",0,2665.724099992076,368.3597999915946,True,False
19,3,262.59264200000325,t,"(480.0, 270.0)",0,2682.243599992944,384.8792999924626,True,False
19,3,262.608764900011,t,"(480.0, 270.0)",0,2698.366500000702,401.0022000002209,True,False
19,3,262.624971000012,t,"(480.0, 270.0)",0,2714.572600001702,417.2083000012208,True,False
19,3,262.64115680000396,t,"(480.0, 270.0)",0,2730.758399993647,433.3940999931656,True,False
19,3,262.6575590999855,t,"(480.0, 270.0)",0,2747.160699975211,449.79639997472987,True,False
19,3,262.67475090001244,t,"(480.0, 270.0)",0,2764.3525000021327,466.9882000016514,True,False
19,3,262.6904666000046,t,"(480.0, 270.0)",0,2780.0681999942753,482.70389999379404,True,False
19,3,262.7088381999929,t,"(480.0, 270.0)",0,2798.4397999825887,501.07549998210743,True,False
19,3,262.7243857999856,t,"(480.0, 270.0)",0,2813.9873999753036,516.6230999748223,True,False
19,3,262.7418081999931,t,"(480.0, 270.0)",0,2831.4097999827936,534.0454999823123,True,False
19,3,262.7580453999981,t,"(480.0, 270.0)",0,2847.6469999877736,550.2826999872923,True,False
19,3,262.7751444999885,t,"(480.0, 270.0)",0,2864.7460999782197,567.3817999777384,True,False
19,3,262.79126649998943,t,"(480.0, 270.0)",0,2880.868099979125,583.5037999786437,True,False
19,3,262.8138268000039,t,"(480.0, 270.0)",0,2903.4283999935724,606.0640999930911,True,False
19,3,262.825651799998,t,"(480.0, 270.0)",0,2915.253399987705,617.8890999872237,True,False
19,3,262.84141769999405,t,"(480.0, 270.0)",0,2931.0192999837454,633.6549999832641,True,False
19,3,262.8581787000003,t,"(480.0, 270.0)",0,2947.7802999899723,650.415999989491,True,False
19,3,262.8744321000122,t,"(480.0, 270.0)",0,2964.0337000018917,666.6694000014104,True,False
19,3,262.89078290000907,t,"(480.0, 270.0)",0,2980.384499998763,683.0201999982819,True,False
19,3,262.9079652999935,t,"(480.0, 270.0)",0,2997.5668999832124,700.202599982731,True,False
19,3,262.92393950000405,t,"(480.0, 270.0)",0,3013.541099993745,716.1767999932636,True,False
19,3,262.9421415000106,t,"(480.0, 270.0)",0,3031.7431000003126,734.3787999998312,True,False
19,3,262.9576129000052,t,"(480.0, 270.0)",0,3047.2144999948796,749.8501999943983,True,False
19,3,262.9749776000099,t,"(480.0, 270.0)",0,3064.579199999571,767.2148999990895,True,False
19,3,262.9912650999904,t,"(480.0, 270.0)",0,3080.866699980106,783.5023999796249,True,False
19,3,263.0088972999947,t,"(480.0, 270.0)",0,3098.4988999844063,801.134599983925,True,False
19,3,263.02558169999975,t,"(480.0, 270.0)",0,3115.1832999894395,817.8189999889582,True,False
19,3,263.04186359999585,t,"(480.0, 270.0)",0,3131.4651999855414,834.1008999850601,True,False
19,3,263.0578152000089,t,"(480.0, 270.0)",0,3147.4167999986093,850.052499998128,True,False
19,3,263.0749734000128,t,"(480.0, 270.0)",0,3164.5750000025146,867.2107000020333,True,False
19,3,263.09046020000824,t,"(480.0, 270.0)",0,3180.0617999979295,882.6974999974482,True,False
19,3,263.10946589999367,t,"(480.0, 270.0)",0,3199.0674999833573,901.703199982876,True,False
19,3,263.12406149998424,t,"(480.0, 270.0)",0,3213.663099973928,916.2987999734469,True,False
19,3,263.1417175999959,t,"(480.0, 270.0)",0,3231.3191999855917,933.9548999851104,True,False
19,3,263.15708169998834,t,"(480.0, 270.0)",0,3246.683299978031,949.3189999775495,True,False
19,3,263.1764800999954,t,"(480.0, 270.0)",0,3266.0816999850795,968.7173999845982,True,False
19,3,263.19026699999813,t,"(480.0, 270.0)",0,3279.8685999878217,982.5042999873403,True,False
19,3,263.20768160000443,t,"(480.0, 270.0)",0,3297.2831999941263,999.918899993645,True,False
19,3,263.2253378999885,t,"(480.0, 270.0)",0,3314.939499978209,1017.5751999777276,True,False
19,3,263.2412836999865,t,"(480.0, 270.0)",0,3330.8852999762166,1033.5209999757353,True,False
19,3,263.25789670000086,t,"(480.0, 270.0)",0,3347.498299990548,1050.1339999900665,True,False
19,3,263.2752280999848,t,"(480.0, 270.0)",0,3364.829699974507,1067.4653999740258,True,False
19,3,263.2906324999931,t,"(480.0, 270.0)",0,3380.234099982772,1082.8697999822907,True,False
19,3,263.30800009999075,t,"(480.0, 270.0)",0,3397.6016999804415,1100.2373999799602,True,False
19,3,263.3237613000092,t,"(480.0, 270.0)",0,3413.3628999989014,1115.99859999842,True,False
19,3,263.3431020999851,t,"(480.0, 270.0)",0,3432.703699974809,1135.3393999743275,True,False
19,3,263.34485950000817,star,"(-480.0, 270.0)",252.06330002401955,3434.4610999978613,1137.09679999738,True,False
19,3,263.36079010000685,star,"(-480.0, 270.0)",0,3450.391699996544,1153.0273999960627,True,False
19,3,263.37499390001176,star,"(-480.0, 270.0)",0,3464.595500001451,1167.2312000009697,True,False
19,3,263.3906210999994,star,"(-480.0, 270.0)",0,3480.222699989099,1182.8583999886177,True,False
19,3,263.40835310000693,star,"(-480.0, 270.0)",0,3497.954699996626,1200.5903999961447,True,False
19,3,263.4243092999968,star,"(-480.0, 270.0)",0,3513.910899986513,1216.5465999860317,True,False
19,3,263.4411400000099,star,"(-480.0, 270.0)",0,3530.741599999601,1233.3772999991197,True,False
19,3,263.4576039999956,star,"(-480.0, 270.0)",0,3547.2055999853183,1249.841299984837,True,False
19,3,263.4749152000004,star,"(-480.0, 270.0)",0,3564.5167999900877,1267.1524999896064,True,False
19,3,263.49053310000454,star,"(-480.0, 270.0)",0,3580.1346999942325,1282.7703999937512,True,False
19,3,263.5077420999878,star,"(-480.0, 270.0)",0,3597.3436999775004,1299.979399977019,True,False
19,3,263.5241730000125,star,"(-480.0, 270.0)",0,3613.774600002216,1316.4103000017349,True,False
19,3,263.5474409000017,star,"(-480.0, 270.0)",0,3637.0424999913666,1339.6781999908853,True,False
19,3,263.5589966000116,star,"(-480.0, 270.0)",0,3648.598200001288,1351.233900000807,True,False
19,3,263.5770821000042,star,"(-480.0, 270.0)",0,3666.6836999938823,1369.319399993401,True,False
19,3,263.59191290001036,star,"(-480.0, 270.0)",0,3681.5145000000484,1384.1501999995671,True,False
19,3,263.6100931999972,star,"(-480.0, 270.0)",0,3699.6947999869008,1402.3304999864195,True,False
19,3,263.6255919999967,star,"(-480.0, 270.0)",0,3715.193599986378,1417.8292999858968,True,False
19,3,263.64299640001263,star,"(-480.0, 270.0)",0,3732.5980000023264,1435.2337000018451,True,False
19,3,263.6588536000054,star,"(-480.0, 270.0)",0,3748.455199995078,1451.0908999945968,True,False
19,3,263.675960499997,star,"(-480.0, 270.0)",0,3765.5620999867097,1468.1977999862283,True,False
19,3,263.6916877999902,star,"(-480.0, 270.0)",0,3781.289399979869,1483.9250999793876,True,False
19,3,263.71044679998886,star,"(-480.0, 270.0)",0,3800.04839997855,1502.6840999780688,True,False
19,3,263.7252445000049,star,"(-480.0, 270.0)",0,3814.846099994611,1517.4817999941297,True,False
19,3,263.7282617999881,t,"(480.0, 270.0)",251.11129999277182,3817.863399977796,1520.4990999773145,True,False
19,3,263.7463076999993,t,"(480.0, 270.0)",0,3835.909299988998,1538.5449999885168,True,False
19,3,263.7585687999963,t,"(480.0, 270.0)",0,3848.1703999859747,1550.8060999854933,True,False
19,3,263.7768335999863,t,"(480.0, 270.0)",0,3866.4351999759674,1569.070899975486,True,False
19,3,263.7896456999879,t,"(480.0, 270.0)",0,3879.247299977578,1581.882999977097,True,False
19,3,263.8081303999934,t,"(480.0, 270.0)",0,3897.7319999830797,1600.3676999825984,True,False
19,3,263.82392880000407,t,"(480.0, 270.0)",0,3913.5303999937605,1616.1660999932792,True,False
19,3,263.8408979999949,t,"(480.0, 270.0)",0,3930.499599984614,1633.1352999841329,True,False
19,3,263.85773449999397,t,"(480.0, 270.0)",0,3947.3360999836586,1649.9717999831773,True,False
19,3,263.87488680001115,t,"(480.0, 270.0)",0,3964.488400000846,1667.1241000003647,True,False
19,3,263.8905451000028,t,"(480.0, 270.0)",0,3980.146699992474,1682.7823999919929,True,False
19,3,263.9070625999884,t,"(480.0, 270.0)",0,3996.664199978113,1699.2998999776319,True,False
19,3,263.92389840001124,t,"(480.0, 270.0)",0,4013.5000000009313,1716.13570000045,True,False
19,3,263.9410626000026,t,"(480.0, 270.0)",0,4030.664199992316,1733.2998999918345,True,False
19,3,263.95766029998777,t,"(480.0, 270.0)",0,4047.261899977457,1749.8975999769755,True,False
19,3,263.9741198999982,t,"(480.0, 270.0)",0,4063.721499987878,1766.3571999873966,True,False
19,3,264.706984199991,star,"(-480.0, 270.0)",250.2084999869112,4796.585799980676,2499.2214999801945,False,True
19,4,270.1563768000051,circle,"(-480.0, -270.0)",250.7882000063546,10245.978399994783,5449.392600014107,False,True
